userID,trial,stimuli,rews,s,block,stake,choice,points_real,points,planet,theor_best_choice,RT
1,1,"[3, 4]","[70, 10]","[2, 2]",[1],[5],[4],[50],[1],[2],[3],[8320]
1,2,"[1, 2]","[60, 0]","[1, 2]",[1],[1],[2],[0],[0],[2],[1],[4211]
1,3,"[2, 1]","[10, 80]","[1, 1]",[1],[5],[1],[400],[8],[1],[2],[2082]
1,4,"[4, 3]","[10, 90]","[2, 2]",[1],[5],[4],[50],[1],[2],[4],[2236]
1,5,"[3, 4]","[70, 20]","[2, 2]",[1],[5],[4],[100],[2],[2],[3],[2182]
1,6,"[3, 4]","[80, 40]","[2, 2]",[1],[5],[4],[200],[4],[2],[3],[2714]
1,7,"[2, 1]","[70, 80]","[1, 1]",[1],[1],[1],[80],[8],[1],[2],[3044]
1,8,"[1, 2]","[70, 90]","[1, 1]",[1],[1],[1],[70],[7],[1],[2],[2853]
1,9,"[1, 2]","[50, 80]","[1, 2]",[1],[1],[2],[80],[8],[2],[2],[2631]
1,10,"[1, 2]","[30, 90]","[1, 2]",[1],[1],[2],[90],[9],[2],[2],[2315]
1,11,"[3, 4]","[30, 80]","[2, 1]",[1],[5],[3],[150],[3],[1],[4],[2540]
1,12,"[3, 4]","[20, 70]","[2, 1]",[1],[5],[3],[100],[2],[1],[4],[1876]
1,13,"[3, 4]","[10, 40]","[2, 1]",[1],[5],[3],[50],[1],[1],[4],[1858]
1,14,"[4, 3]","[30, 10]","[2, 2]",[1],[5],[4],[150],[3],[2],[3],[1926]
1,15,"[3, 4]","[20, 10]","[2, 1]",[1],[1],[3],[20],[2],[1],[3],[2046]
1,16,"[3, 4]","[20, 20]","[2, 2]",[1],[5],[4],[100],[2],[2],[3],[2100]
1,17,"[1, 2]","[20, 20]","[1, 2]",[1],[1],[2],[20],[2],[2],[1],[2241]
1,18,"[2, 1]","[20, 30]","[1, 2]",[1],[5],[2],[100],[2],[2],[2],[1884]
1,19,"[1, 2]","[40, 40]","[1, 2]",[1],[1],[2],[40],[4],[2],[1],[2333]
1,20,"[3, 4]","[50, 50]","[2, 2]",[1],[5],[4],[250],[5],[2],[3],[2882]
1,21,"[1, 2]","[30, 50]","[1, 2]",[1],[1],[2],[50],[5],[2],[2],[2058]
1,22,"[3, 4]","[30, 20]","[2, 2]",[1],[5],[4],[100],[2],[2],[3],[2607]
1,23,"[3, 4]","[60, 0]","[2, 1]",[1],[1],[3],[60],[6],[1],[3],[2987]
1,24,"[3, 4]","[60, 30]","[2, 1]",[1],[5],[3],[300],[6],[1],[3],[1943]
1,25,"[1, 2]","[70, 20]","[1, 1]",[1],[1],[1],[70],[7],[1],[1],[3238]
1,26,"[2, 1]","[50, 90]","[1, 1]",[1],[1],[1],[90],[9],[1],[2],[3166]
1,27,"[4, 3]","[80, 80]","[2, 1]",[1],[1],[3],[80],[8],[1],[4],[2232]
1,28,"[3, 4]","[80, 70]","[2, 1]",[1],[1],[3],[80],[8],[1],[3],[2032]
1,29,"[2, 1]","[80, 80]","[1, 1]",[1],[1],[1],[80],[8],[1],[2],[2215]
1,30,"[1, 2]","[60, 80]","[1, 1]",[1],[5],[1],[300],[6],[1],[2],[4436]
1,31,"[1, 2]","[70, 60]","[1, 1]",[1],[5],[1],[350],[7],[1],[1],[2164]
1,32,"[4, 3]","[60, 80]","[2, 1]",[1],[1],[3],[80],[8],[1],[4],[2192]
1,33,"[3, 4]","[90, 60]","[2, 1]",[1],[1],[3],[90],[9],[1],[3],[2000]
1,34,"[4, 3]","[30, 60]","[2, 1]",[1],[5],[3],[300],[6],[1],[4],[2206]
1,35,"[4, 3]","[40, 80]","[2, 1]",[1],[1],[3],[80],[8],[1],[4],[2076]
1,36,"[4, 3]","[20, 80]","[2, 1]",[1],[5],[3],[400],[8],[1],[4],[2092]
1,37,"[4, 3]","[10, 90]","[2, 1]",[1],[5],[3],[450],[9],[1],[4],[1849]
1,38,"[1, 2]","[70, 20]","[1, 1]",[1],[5],[1],[350],[7],[1],[1],[2757]
1,39,"[1, 2]","[40, 20]","[1, 1]",[1],[1],[1],[40],[4],[1],[1],[2191]
1,40,"[4, 3]","[20, 50]","[2, 2]",[1],[5],[4],[100],[2],[2],[4],[2332]
1,41,"[3, 4]","[30, 40]","[2, 1]",[2],[5],[3],[150],[3],[1],[4],[7864]
1,42,"[2, 1]","[30, 60]","[1, 2]",[2],[1],[2],[30],[3],[2],[2],[2615]
1,43,"[3, 4]","[70, 40]","[2, 1]",[2],[5],[3],[350],[7],[1],[3],[3155]
1,44,"[1, 2]","[70, 60]","[1, 1]",[2],[1],[1],[70],[7],[1],[1],[2301]
1,45,"[1, 2]","[70, 60]","[1, 1]",[2],[1],[1],[70],[7],[1],[1],[2408]
1,46,"[3, 4]","[70, 90]","[2, 1]",[2],[1],[3],[70],[7],[1],[4],[1883]
1,47,"[3, 4]","[80, 70]","[2, 1]",[2],[1],[3],[80],[8],[1],[3],[1816]
1,48,"[2, 1]","[90, 90]","[1, 1]",[2],[5],[1],[450],[9],[1],[2],[3140]
1,49,"[1, 2]","[50, 70]","[1, 1]",[2],[1],[1],[50],[5],[1],[2],[2665]
1,50,"[4, 3]","[70, 60]","[2, 2]",[2],[1],[4],[70],[7],[2],[3],[2684]
1,51,"[3, 4]","[80, 70]","[2, 2]",[2],[1],[4],[70],[7],[2],[3],[2109]
1,52,"[3, 4]","[60, 40]","[2, 2]",[2],[1],[4],[40],[4],[2],[3],[1791]
1,53,"[4, 3]","[50, 70]","[2, 1]",[2],[1],[3],[70],[7],[1],[4],[2629]
1,54,"[4, 3]","[60, 70]","[2, 1]",[2],[1],[3],[70],[7],[1],[4],[1943]
1,55,"[1, 2]","[80, 50]","[1, 1]",[2],[1],[1],[80],[8],[1],[1],[2998]
1,56,"[3, 4]","[50, 60]","[2, 1]",[2],[1],[3],[50],[5],[1],[4],[2111]
1,57,"[3, 4]","[40, 70]","[2, 2]",[2],[5],[4],[350],[7],[2],[4],[2264]
1,58,"[1, 2]","[50, 90]","[1, 1]",[2],[1],[1],[50],[5],[1],[2],[3049]
1,59,"[4, 3]","[70, 60]","[2, 2]",[2],[5],[4],[350],[7],[2],[3],[2257]
1,60,"[1, 2]","[80, 50]","[1, 1]",[2],[5],[1],[400],[8],[1],[1],[2117]
1,61,"[2, 1]","[30, 70]","[1, 1]",[2],[5],[1],[350],[7],[1],[2],[3029]
1,62,"[4, 3]","[40, 90]","[2, 2]",[2],[5],[4],[200],[4],[2],[4],[2682]
1,63,"[4, 3]","[30, 80]","[2, 1]",[2],[1],[3],[80],[8],[1],[4],[1958]
1,64,"[4, 3]","[20, 60]","[2, 1]",[2],[5],[3],[300],[6],[1],[4],[1958]
1,65,"[1, 2]","[50, 30]","[1, 1]",[2],[5],[1],[250],[5],[1],[1],[2500]
1,66,"[1, 2]","[90, 0]","[1, 2]",[2],[1],[2],[0],[0],[2],[1],[2704]
1,67,"[3, 4]","[50, 30]","[2, 1]",[2],[1],[3],[50],[5],[1],[3],[1975]
1,68,"[4, 3]","[0, 60]","[2, 1]",[2],[5],[3],[300],[6],[1],[4],[2339]
1,69,"[4, 3]","[20, 70]","[2, 1]",[2],[5],[3],[350],[7],[1],[4],[1835]
1,70,"[3, 4]","[70, 10]","[2, 1]",[2],[5],[3],[350],[7],[1],[3],[1925]
1,71,"[4, 3]","[20, 40]","[2, 1]",[2],[5],[3],[200],[4],[1],[4],[1868]
1,72,"[3, 4]","[20, 20]","[2, 1]",[2],[1],[3],[20],[2],[1],[3],[2059]
1,73,"[1, 2]","[40, 60]","[1, 2]",[2],[5],[2],[300],[6],[2],[2],[2399]
1,74,"[3, 4]","[30, 90]","[2, 2]",[2],[5],[4],[450],[9],[2],[4],[2358]
1,75,"[2, 1]","[60, 40]","[1, 2]",[2],[5],[2],[300],[6],[2],[1],[2665]
1,76,"[4, 3]","[50, 40]","[2, 2]",[2],[1],[4],[50],[5],[2],[3],[2912]
1,77,"[3, 4]","[0, 40]","[2, 2]",[2],[1],[4],[40],[4],[2],[4],[1783]
1,78,"[1, 2]","[10, 40]","[1, 1]",[2],[1],[1],[10],[1],[1],[2],[2483]
1,79,"[4, 3]","[20, 10]","[2, 2]",[2],[5],[4],[100],[2],[2],[3],[2633]
1,80,"[3, 4]","[10, 20]","[2, 2]",[2],[5],[4],[100],[2],[2],[4],[3697]
2,1,"[1, 2]","[60, 20]","[1, 1]",[1],[5],[1],[300],[6],[1],[1],[5578]
2,2,"[4, 3]","[10, 90]","[2, 1]",[1],[5],[3],[450],[9],[1],[4],[2525]
2,3,"[2, 1]","[10, 70]","[1, 1]",[1],[1],[1],[70],[7],[1],[2],[1930]
2,4,"[4, 3]","[30, 70]","[2, 1]",[1],[5],[3],[350],[7],[1],[4],[1854]
2,5,"[4, 3]","[50, 90]","[2, 1]",[1],[1],[3],[90],[9],[1],[4],[2105]
2,6,"[3, 4]","[80, 60]","[2, 1]",[1],[5],[3],[400],[8],[1],[3],[2642]
2,7,"[3, 4]","[60, 40]","[2, 1]",[1],[5],[3],[300],[6],[1],[3],[1902]
2,8,"[3, 4]","[50, 10]","[2, 2]",[1],[1],[4],[10],[1],[2],[3],[2707]
2,9,"[4, 3]","[10, 70]","[2, 1]",[1],[1],[3],[70],[7],[1],[4],[2081]
2,10,"[1, 2]","[60, 20]","[1, 1]",[1],[5],[1],[300],[6],[1],[1],[2028]
2,11,"[1, 2]","[60, 10]","[1, 1]",[1],[1],[1],[60],[6],[1],[1],[2557]
2,12,"[1, 2]","[30, 10]","[1, 2]",[1],[1],[2],[10],[1],[2],[1],[1728]
2,13,"[2, 1]","[0, 10]","[1, 1]",[1],[1],[1],[10],[1],[1],[2],[2396]
2,14,"[1, 2]","[20, 0]","[1, 2]",[1],[5],[2],[0],[0],[2],[1],[1846]
2,15,"[1, 2]","[30, 10]","[1, 1]",[1],[5],[1],[150],[3],[1],[1],[2313]
2,16,"[2, 1]","[20, 20]","[1, 1]",[1],[1],[1],[20],[2],[1],[2],[2030]
2,17,"[4, 3]","[10, 40]","[2, 2]",[1],[1],[4],[10],[1],[2],[4],[2884]
2,18,"[4, 3]","[20, 30]","[2, 2]",[1],[5],[4],[100],[2],[2],[4],[2144]
2,19,"[2, 1]","[30, 10]","[1, 1]",[1],[5],[1],[50],[1],[1],[1],[2056]
2,20,"[2, 1]","[50, 10]","[1, 1]",[1],[5],[1],[50],[1],[1],[1],[1863]
2,21,"[3, 4]","[20, 60]","[2, 2]",[1],[1],[4],[60],[6],[2],[4],[2825]
2,22,"[2, 1]","[90, 40]","[1, 2]",[1],[5],[2],[450],[9],[2],[1],[3086]
2,23,"[1, 2]","[50, 80]","[1, 2]",[1],[5],[2],[400],[8],[2],[2],[1787]
2,24,"[4, 3]","[60, 50]","[2, 2]",[1],[1],[4],[60],[6],[2],[3],[1787]
2,25,"[3, 4]","[40, 70]","[2, 2]",[1],[1],[4],[70],[7],[2],[4],[2432]
2,26,"[1, 2]","[20, 80]","[1, 2]",[1],[5],[2],[400],[8],[2],[2],[2414]
2,27,"[4, 3]","[80, 30]","[2, 2]",[1],[5],[4],[400],[8],[2],[3],[3471]
2,28,"[4, 3]","[80, 40]","[2, 2]",[1],[5],[4],[400],[8],[2],[3],[2581]
2,29,"[1, 2]","[40, 80]","[1, 2]",[1],[1],[2],[80],[8],[2],[2],[3346]
2,30,"[2, 1]","[80, 60]","[1, 2]",[1],[5],[2],[400],[8],[2],[1],[3395]
2,31,"[3, 4]","[10, 70]","[2, 2]",[1],[1],[4],[70],[7],[2],[4],[2153]
2,32,"[1, 2]","[10, 90]","[1, 2]",[1],[1],[2],[90],[9],[2],[2],[2012]
2,33,"[2, 1]","[70, 40]","[1, 2]",[1],[5],[2],[350],[7],[2],[1],[1937]
2,34,"[1, 2]","[60, 70]","[1, 2]",[1],[1],[2],[70],[7],[2],[2],[2105]
2,35,"[3, 4]","[60, 70]","[2, 2]",[1],[1],[4],[70],[7],[2],[4],[3772]
2,36,"[4, 3]","[70, 60]","[2, 2]",[1],[5],[4],[350],[7],[2],[3],[1897]
2,37,"[1, 2]","[60, 60]","[1, 2]",[1],[5],[2],[300],[6],[2],[1],[2188]
2,38,"[2, 1]","[80, 40]","[1, 2]",[1],[1],[2],[80],[8],[2],[1],[1994]
2,39,"[3, 4]","[40, 70]","[2, 2]",[1],[1],[4],[70],[7],[2],[4],[2114]
2,40,"[2, 1]","[60, 20]","[1, 2]",[1],[5],[2],[300],[6],[2],[1],[1762]
2,41,"[4, 3]","[90, 50]","[2, 1]",[2],[5],[3],[250],[5],[1],[3],[8000]
2,42,"[1, 2]","[30, 90]","[1, 1]",[2],[1],[1],[30],[3],[1],[2],[2071]
2,43,"[1, 2]","[60, 60]","[1, 1]",[2],[1],[1],[60],[6],[1],[1],[1956]
2,44,"[2, 1]","[90, 30]","[1, 1]",[2],[1],[1],[30],[3],[1],[1],[2250]
2,45,"[1, 2]","[40, 90]","[1, 1]",[2],[1],[1],[40],[4],[1],[2],[1957]
2,46,"[2, 1]","[70, 40]","[1, 2]",[2],[5],[2],[350],[7],[2],[1],[2025]
2,47,"[1, 2]","[40, 60]","[1, 2]",[2],[5],[2],[300],[6],[2],[2],[1798]
2,48,"[3, 4]","[90, 60]","[2, 2]",[2],[5],[4],[300],[6],[2],[3],[2642]
2,49,"[1, 2]","[90, 60]","[1, 2]",[2],[1],[2],[60],[6],[2],[1],[2248]
2,50,"[3, 4]","[80, 80]","[2, 2]",[2],[1],[4],[80],[8],[2],[3],[1684]
2,51,"[3, 4]","[90, 80]","[2, 2]",[2],[1],[4],[80],[8],[2],[3],[1796]
2,52,"[3, 4]","[70, 80]","[2, 2]",[2],[5],[4],[400],[8],[2],[4],[2321]
2,53,"[3, 4]","[70, 70]","[2, 2]",[2],[5],[4],[350],[7],[2],[3],[1702]
2,54,"[2, 1]","[80, 60]","[1, 2]",[2],[5],[2],[400],[8],[2],[1],[2290]
2,55,"[2, 1]","[80, 80]","[1, 2]",[2],[1],[2],[80],[8],[2],[2],[2080]
2,56,"[4, 3]","[80, 70]","[2, 2]",[2],[5],[4],[400],[8],[2],[3],[1936]
2,57,"[3, 4]","[80, 50]","[2, 2]",[2],[5],[4],[250],[5],[2],[3],[2297]
2,58,"[4, 3]","[20, 90]","[2, 2]",[2],[1],[4],[20],[2],[2],[4],[2157]
2,59,"[1, 2]","[70, 40]","[1, 1]",[2],[5],[1],[350],[7],[1],[1],[1947]
2,60,"[2, 1]","[20, 80]","[1, 1]",[2],[5],[1],[400],[8],[1],[2],[1964]
2,61,"[3, 4]","[70, 30]","[2, 1]",[2],[1],[3],[70],[7],[1],[3],[2341]
2,62,"[1, 2]","[70, 0]","[1, 1]",[2],[5],[1],[350],[7],[1],[1],[1736]
2,63,"[3, 4]","[50, 40]","[2, 1]",[2],[1],[3],[50],[5],[1],[3],[2090]
2,64,"[4, 3]","[10, 50]","[2, 1]",[2],[5],[3],[250],[5],[1],[4],[2800]
2,65,"[3, 4]","[60, 10]","[2, 1]",[2],[5],[3],[300],[6],[1],[3],[2014]
2,66,"[3, 4]","[40, 50]","[2, 1]",[2],[1],[3],[40],[4],[1],[4],[1960]
2,67,"[2, 1]","[30, 80]","[1, 1]",[2],[1],[1],[80],[8],[1],[2],[1938]
2,68,"[1, 2]","[80, 70]","[1, 1]",[2],[5],[1],[400],[8],[1],[1],[1979]
2,69,"[1, 2]","[70, 80]","[1, 1]",[2],[5],[1],[350],[7],[1],[2],[2113]
2,70,"[2, 1]","[80, 90]","[1, 1]",[2],[1],[1],[90],[9],[1],[2],[2004]
2,71,"[3, 4]","[80, 70]","[2, 1]",[2],[1],[3],[80],[8],[1],[3],[2381]
2,72,"[4, 3]","[60, 90]","[2, 1]",[2],[1],[3],[90],[9],[1],[4],[1811]
2,73,"[1, 2]","[80, 40]","[1, 1]",[2],[5],[1],[400],[8],[1],[1],[2271]
2,74,"[1, 2]","[80, 70]","[1, 1]",[2],[1],[1],[80],[8],[1],[1],[1896]
2,75,"[4, 3]","[50, 90]","[2, 1]",[2],[1],[3],[90],[9],[1],[4],[2096]
2,76,"[1, 2]","[80, 40]","[1, 1]",[2],[1],[1],[80],[8],[1],[1],[2046]
2,77,"[1, 2]","[60, 0]","[1, 1]",[2],[1],[1],[60],[6],[1],[1],[1963]
2,78,"[4, 3]","[20, 50]","[2, 1]",[2],[1],[3],[50],[5],[1],[4],[1946]
2,79,"[1, 2]","[30, 20]","[1, 1]",[2],[5],[1],[150],[3],[1],[1],[2730]
2,80,"[4, 3]","[50, 40]","[2, 1]",[2],[5],[3],[200],[4],[1],[3],[3703]
3,1,"[2, 1]","[30, 80]","[1, 1]",[1],[1],[1],[80],[8],[1],[2],[3657]
3,2,"[2, 1]","[0, 90]","[1, 1]",[1],[1],[1],[90],[9],[1],[2],[1913]
3,3,"[3, 4]","[60, 20]","[2, 1]",[1],[1],[3],[60],[6],[1],[3],[2288]
3,4,"[4, 3]","[10, 70]","[2, 2]",[1],[5],[4],[50],[1],[2],[4],[3755]
3,5,"[3, 4]","[70, 0]","[2, 1]",[1],[1],[3],[70],[7],[1],[3],[3280]
3,6,"[1, 2]","[50, 30]","[1, 1]",[1],[5],[1],[250],[5],[1],[1],[2814]
3,7,"[2, 1]","[30, 40]","[1, 1]",[1],[5],[1],[200],[4],[1],[2],[2830]
3,8,"[2, 1]","[10, 20]","[1, 1]",[1],[1],[1],[20],[2],[1],[2],[1945]
3,9,"[4, 3]","[10, 20]","[2, 2]",[1],[5],[4],[50],[1],[2],[4],[2013]
3,10,"[4, 3]","[60, 10]","[2, 1]",[1],[1],[3],[10],[1],[1],[3],[1805]
3,11,"[4, 3]","[10, 30]","[2, 2]",[1],[1],[4],[10],[1],[2],[4],[2988]
3,12,"[1, 2]","[10, 40]","[1, 1]",[1],[1],[1],[10],[1],[1],[2],[2628]
3,13,"[3, 4]","[10, 30]","[2, 1]",[1],[5],[3],[50],[1],[1],[4],[2205]
3,14,"[4, 3]","[40, 30]","[2, 2]",[1],[1],[4],[40],[4],[2],[3],[2147]
3,15,"[2, 1]","[40, 40]","[1, 2]",[1],[5],[2],[200],[4],[2],[2],[3180]
3,16,"[4, 3]","[40, 50]","[2, 2]",[1],[5],[4],[200],[4],[2],[4],[2282]
3,17,"[3, 4]","[60, 50]","[2, 2]",[1],[5],[4],[250],[5],[2],[3],[2071]
3,18,"[2, 1]","[40, 50]","[1, 2]",[1],[1],[2],[40],[4],[2],[2],[3037]
3,19,"[1, 2]","[50, 40]","[1, 2]",[1],[5],[2],[200],[4],[2],[1],[2987]
3,20,"[4, 3]","[40, 30]","[2, 1]",[1],[5],[3],[150],[3],[1],[3],[2171]
3,21,"[1, 2]","[10, 10]","[1, 2]",[1],[5],[2],[50],[1],[2],[1],[2228]
3,22,"[4, 3]","[30, 10]","[2, 1]",[1],[5],[3],[50],[1],[1],[3],[2037]
3,23,"[1, 2]","[10, 10]","[1, 1]",[1],[5],[1],[50],[1],[1],[1],[1997]
3,24,"[4, 3]","[20, 10]","[2, 2]",[1],[1],[4],[20],[2],[2],[3],[1872]
3,25,"[3, 4]","[0, 50]","[2, 2]",[1],[5],[4],[250],[5],[2],[4],[2404]
3,26,"[3, 4]","[10, 40]","[2, 2]",[1],[5],[4],[200],[4],[2],[4],[1963]
3,27,"[3, 4]","[10, 50]","[2, 2]",[1],[5],[4],[250],[5],[2],[4],[1812]
3,28,"[3, 4]","[30, 40]","[2, 2]",[1],[5],[4],[200],[4],[2],[4],[2154]
3,29,"[4, 3]","[20, 20]","[2, 2]",[1],[1],[4],[20],[2],[2],[4],[1989]
3,30,"[1, 2]","[10, 20]","[1, 1]",[1],[1],[1],[10],[1],[1],[2],[1759]
3,31,"[2, 1]","[0, 10]","[1, 2]",[1],[1],[2],[0],[0],[2],[2],[3620]
3,32,"[4, 3]","[60, 30]","[2, 2]",[1],[5],[4],[300],[6],[2],[3],[2597]
3,33,"[1, 2]","[20, 40]","[1, 2]",[1],[1],[2],[40],[4],[2],[2],[2571]
3,34,"[1, 2]","[20, 30]","[1, 1]",[1],[1],[1],[20],[2],[1],[2],[2063]
3,35,"[1, 2]","[0, 40]","[1, 1]",[1],[5],[1],[0],[0],[1],[2],[2971]
3,36,"[1, 2]","[30, 20]","[1, 2]",[1],[5],[2],[100],[2],[2],[1],[1863]
3,37,"[4, 3]","[40, 10]","[2, 2]",[1],[1],[4],[40],[4],[2],[3],[2289]
3,38,"[2, 1]","[40, 0]","[1, 2]",[1],[1],[2],[40],[4],[2],[1],[2130]
3,39,"[4, 3]","[80, 20]","[2, 2]",[1],[1],[4],[80],[8],[2],[3],[2497]
3,40,"[1, 2]","[50, 50]","[1, 2]",[1],[5],[2],[250],[5],[2],[1],[2380]
3,41,"[3, 4]","[60, 50]","[2, 1]",[2],[1],[3],[60],[6],[1],[3],[5533]
3,42,"[4, 3]","[80, 50]","[2, 1]",[2],[1],[3],[50],[5],[1],[3],[1905]
3,43,"[2, 1]","[60, 50]","[1, 1]",[2],[5],[1],[250],[5],[1],[1],[2467]
3,44,"[3, 4]","[50, 50]","[2, 1]",[2],[1],[3],[50],[5],[1],[3],[1688]
3,45,"[4, 3]","[30, 10]","[2, 1]",[2],[5],[3],[50],[1],[1],[3],[2213]
3,46,"[4, 3]","[50, 10]","[2, 2]",[2],[1],[4],[50],[5],[2],[3],[2039]
3,47,"[3, 4]","[30, 50]","[2, 2]",[2],[1],[4],[50],[5],[2],[4],[1871]
3,48,"[4, 3]","[60, 0]","[2, 2]",[2],[1],[4],[60],[6],[2],[3],[2046]
3,49,"[3, 4]","[10, 70]","[2, 2]",[2],[1],[4],[70],[7],[2],[4],[1938]
3,50,"[2, 1]","[60, 30]","[1, 2]",[2],[1],[2],[60],[6],[2],[1],[1946]
3,51,"[1, 2]","[60, 60]","[1, 2]",[2],[1],[2],[60],[6],[2],[1],[1830]
3,52,"[2, 1]","[80, 80]","[1, 2]",[2],[1],[2],[80],[8],[2],[2],[1688]
3,53,"[4, 3]","[80, 50]","[2, 2]",[2],[1],[4],[80],[8],[2],[3],[1921]
3,54,"[1, 2]","[40, 70]","[1, 2]",[2],[5],[2],[350],[7],[2],[2],[14304]
3,55,"[3, 4]","[0, 90]","[2, 1]",[2],[5],[3],[0],[0],[1],[4],[1881]
3,56,"[2, 1]","[80, 0]","[1, 1]",[2],[1],[1],[0],[0],[1],[1],[3020]
3,57,"[2, 1]","[60, 20]","[1, 2]",[2],[5],[2],[300],[6],[2],[1],[1703]
3,58,"[3, 4]","[50, 90]","[2, 2]",[2],[1],[4],[90],[9],[2],[4],[8436]
3,59,"[3, 4]","[90, 90]","[2, 2]",[2],[5],[4],[450],[9],[2],[3],[1881]
3,60,"[1, 2]","[80, 80]","[1, 2]",[2],[1],[2],[80],[8],[2],[1],[1829]
3,61,"[2, 1]","[70, 90]","[1, 2]",[2],[5],[2],[350],[7],[2],[2],[1987]
3,62,"[4, 3]","[70, 80]","[2, 2]",[2],[5],[4],[350],[7],[2],[4],[2213]
3,63,"[1, 2]","[70, 70]","[1, 2]",[2],[1],[2],[70],[7],[2],[1],[1646]
3,64,"[1, 2]","[60, 80]","[1, 2]",[2],[5],[2],[400],[8],[2],[2],[2305]
3,65,"[3, 4]","[60, 80]","[2, 2]",[2],[5],[4],[400],[8],[2],[4],[1737]
3,66,"[1, 2]","[90, 80]","[1, 2]",[2],[1],[2],[80],[8],[2],[1],[1703]
3,67,"[2, 1]","[70, 90]","[1, 2]",[2],[1],[2],[70],[7],[2],[2],[1846]
3,68,"[3, 4]","[80, 70]","[2, 2]",[2],[5],[4],[350],[7],[2],[3],[1656]
3,69,"[4, 3]","[90, 70]","[2, 2]",[2],[1],[4],[90],[9],[2],[3],[2972]
3,70,"[4, 3]","[90, 80]","[2, 2]",[2],[5],[4],[450],[9],[2],[3],[2029]
3,71,"[2, 1]","[80, 70]","[1, 2]",[2],[5],[2],[400],[8],[2],[1],[1704]
3,72,"[3, 4]","[20, 70]","[2, 2]",[2],[1],[4],[70],[7],[2],[4],[1947]
3,73,"[2, 1]","[80, 0]","[1, 2]",[2],[1],[2],[80],[8],[2],[1],[1828]
3,74,"[4, 3]","[90, 10]","[2, 2]",[2],[5],[4],[450],[9],[2],[3],[3054]
3,75,"[1, 2]","[0, 80]","[1, 1]",[2],[5],[1],[0],[0],[1],[2],[3096]
3,76,"[1, 2]","[20, 70]","[1, 2]",[2],[5],[2],[350],[7],[2],[2],[2542]
3,77,"[4, 3]","[50, 10]","[2, 2]",[2],[1],[4],[50],[5],[2],[3],[7036]
3,78,"[2, 1]","[50, 10]","[1, 2]",[2],[5],[2],[250],[5],[2],[1],[2489]
3,79,"[4, 3]","[40, 30]","[2, 2]",[2],[5],[4],[200],[4],[2],[3],[3866]
3,80,"[2, 1]","[10, 10]","[1, 2]",[2],[5],[2],[50],[1],[2],[2],[1838]
4,1,"[4, 3]","[40, 80]","[2, 1]",[1],[1],[3],[80],[8],[1],[4],[20182]
4,2,"[2, 1]","[40, 80]","[1, 2]",[1],[5],[2],[200],[4],[2],[2],[2777]
4,3,"[4, 3]","[90, 70]","[2, 1]",[1],[5],[3],[350],[7],[1],[3],[3477]
4,4,"[3, 4]","[80, 90]","[2, 1]",[1],[1],[3],[80],[8],[1],[4],[2078]
4,5,"[4, 3]","[70, 70]","[2, 2]",[1],[5],[4],[350],[7],[2],[4],[26352]
4,6,"[2, 1]","[40, 80]","[1, 1]",[1],[1],[1],[80],[8],[1],[2],[1736]
4,7,"[4, 3]","[30, 60]","[2, 1]",[1],[5],[3],[300],[6],[1],[4],[1704]
4,8,"[3, 4]","[40, 10]","[2, 2]",[1],[1],[4],[10],[1],[2],[3],[1879]
4,9,"[2, 1]","[10, 50]","[1, 2]",[1],[1],[2],[10],[1],[2],[2],[1894]
4,10,"[3, 4]","[40, 0]","[2, 2]",[1],[5],[4],[0],[0],[2],[3],[13477]
4,11,"[3, 4]","[40, 20]","[2, 1]",[1],[1],[3],[40],[4],[1],[3],[2744]
4,12,"[4, 3]","[0, 40]","[2, 1]",[1],[1],[3],[40],[4],[1],[4],[1703]
4,13,"[1, 2]","[60, 10]","[1, 2]",[1],[5],[2],[50],[1],[2],[1],[2702]
4,14,"[1, 2]","[50, 20]","[1, 1]",[1],[1],[1],[50],[5],[1],[1],[1800]
4,15,"[3, 4]","[30, 10]","[2, 1]",[1],[5],[3],[150],[3],[1],[3],[8669]
4,16,"[1, 2]","[20, 10]","[1, 2]",[1],[1],[2],[10],[1],[2],[1],[2620]
4,17,"[2, 1]","[30, 20]","[1, 1]",[1],[1],[1],[20],[2],[1],[1],[9102]
4,18,"[1, 2]","[0, 20]","[1, 1]",[1],[5],[1],[0],[0],[1],[2],[1986]
4,19,"[3, 4]","[0, 10]","[2, 2]",[1],[5],[4],[50],[1],[2],[4],[1736]
4,20,"[1, 2]","[10, 40]","[1, 2]",[1],[5],[2],[200],[4],[2],[2],[4477]
4,21,"[3, 4]","[30, 50]","[2, 2]",[1],[5],[4],[250],[5],[2],[4],[5620]
4,22,"[4, 3]","[70, 50]","[2, 2]",[1],[1],[4],[70],[7],[2],[3],[3645]
4,23,"[4, 3]","[70, 60]","[2, 1]",[1],[1],[3],[60],[6],[1],[3],[1770]
4,24,"[1, 2]","[50, 80]","[1, 2]",[1],[5],[2],[400],[8],[2],[2],[8419]
4,25,"[2, 1]","[70, 40]","[1, 1]",[1],[1],[1],[40],[4],[1],[1],[4385]
4,26,"[3, 4]","[20, 50]","[2, 1]",[1],[1],[3],[20],[2],[1],[4],[2605]
4,27,"[4, 3]","[40, 10]","[2, 1]",[1],[5],[3],[50],[1],[1],[3],[5486]
4,28,"[4, 3]","[70, 0]","[2, 1]",[1],[1],[3],[0],[0],[1],[3],[12885]
4,29,"[4, 3]","[30, 10]","[2, 2]",[1],[1],[4],[30],[3],[2],[3],[2028]
4,30,"[3, 4]","[30, 20]","[2, 1]",[1],[5],[3],[150],[3],[1],[3],[5294]
4,31,"[1, 2]","[0, 30]","[1, 2]",[1],[1],[2],[30],[3],[2],[2],[11869]
4,32,"[2, 1]","[40, 20]","[1, 1]",[1],[5],[1],[100],[2],[1],[1],[14894]
4,33,"[1, 2]","[30, 20]","[1, 2]",[1],[1],[2],[20],[2],[2],[1],[2233]
4,34,"[2, 1]","[20, 30]","[1, 1]",[1],[5],[1],[150],[3],[1],[2],[7652]
4,35,"[4, 3]","[30, 30]","[2, 2]",[1],[5],[4],[150],[3],[2],[4],[4985]
4,36,"[1, 2]","[10, 20]","[1, 1]",[1],[5],[1],[50],[1],[1],[2],[8411]
4,37,"[2, 1]","[30, 0]","[1, 2]",[1],[5],[2],[150],[3],[2],[1],[3070]
4,38,"[2, 1]","[70, 30]","[1, 1]",[1],[1],[1],[30],[3],[1],[1],[3619]
4,39,"[3, 4]","[70, 50]","[2, 2]",[1],[1],[4],[50],[5],[2],[3],[1979]
4,40,"[1, 2]","[60, 90]","[1, 2]",[1],[5],[2],[450],[9],[2],[2],[5078]
4,41,"[2, 1]","[80, 70]","[1, 1]",[2],[1],[1],[70],[7],[1],[1],[11115]
4,42,"[1, 2]","[80, 50]","[1, 2]",[2],[1],[2],[50],[5],[2],[1],[2283]
4,43,"[2, 1]","[30, 70]","[1, 2]",[2],[1],[2],[30],[3],[2],[2],[17960]
4,44,"[1, 2]","[90, 70]","[1, 1]",[2],[1],[1],[90],[9],[1],[1],[1869]
4,45,"[4, 3]","[80, 80]","[2, 2]",[2],[5],[4],[400],[8],[2],[4],[12253]
4,46,"[4, 3]","[90, 70]","[2, 2]",[2],[1],[4],[90],[9],[2],[3],[3062]
4,47,"[2, 1]","[70, 60]","[1, 1]",[2],[1],[1],[60],[6],[1],[1],[1911]
4,48,"[2, 1]","[50, 70]","[1, 1]",[2],[5],[1],[350],[7],[1],[2],[7162]
4,49,"[2, 1]","[80, 60]","[1, 2]",[2],[1],[2],[80],[8],[2],[1],[3443]
4,50,"[4, 3]","[90, 40]","[2, 1]",[2],[1],[3],[40],[4],[1],[3],[6177]
4,51,"[4, 3]","[80, 20]","[2, 2]",[2],[5],[4],[400],[8],[2],[3],[1878]
4,52,"[3, 4]","[0, 50]","[2, 1]",[2],[1],[3],[0],[0],[1],[4],[2628]
4,53,"[2, 1]","[30, 0]","[1, 2]",[2],[5],[2],[150],[3],[2],[1],[2128]
4,54,"[1, 2]","[30, 40]","[1, 1]",[2],[1],[1],[30],[3],[1],[2],[4594]
4,55,"[1, 2]","[20, 30]","[1, 2]",[2],[5],[2],[150],[3],[2],[2],[2312]
4,56,"[3, 4]","[20, 30]","[2, 1]",[2],[5],[3],[100],[2],[1],[4],[3361]
4,57,"[2, 1]","[40, 60]","[1, 2]",[2],[5],[2],[200],[4],[2],[2],[1953]
4,58,"[4, 3]","[50, 40]","[2, 2]",[2],[1],[4],[50],[5],[2],[3],[6044]
4,59,"[2, 1]","[20, 50]","[1, 1]",[2],[5],[1],[250],[5],[1],[2],[1910]
4,60,"[4, 3]","[50, 60]","[2, 2]",[2],[1],[4],[50],[5],[2],[4],[3695]
4,61,"[2, 1]","[40, 60]","[1, 1]",[2],[5],[1],[300],[6],[1],[2],[3716]
4,62,"[1, 2]","[40, 40]","[1, 2]",[2],[5],[2],[200],[4],[2],[1],[2349]
4,63,"[1, 2]","[20, 30]","[1, 2]",[2],[5],[2],[150],[3],[2],[2],[3111]
4,64,"[4, 3]","[30, 10]","[2, 2]",[2],[5],[4],[150],[3],[2],[3],[10077]
4,65,"[3, 4]","[20, 20]","[2, 2]",[2],[5],[4],[100],[2],[2],[3],[6969]
4,66,"[2, 1]","[10, 20]","[1, 1]",[2],[5],[1],[100],[2],[1],[2],[3311]
4,67,"[3, 4]","[40, 10]","[2, 2]",[2],[1],[4],[10],[1],[2],[3],[7628]
4,68,"[3, 4]","[30, 10]","[2, 1]",[2],[1],[3],[30],[3],[1],[3],[1986]
4,69,"[2, 1]","[10, 50]","[1, 2]",[2],[5],[2],[50],[1],[2],[2],[2544]
4,70,"[4, 3]","[0, 50]","[2, 1]",[2],[1],[3],[50],[5],[1],[4],[3994]
4,71,"[2, 1]","[0, 30]","[1, 1]",[2],[1],[1],[30],[3],[1],[2],[5495]
4,72,"[2, 1]","[0, 30]","[1, 2]",[2],[1],[2],[0],[0],[2],[2],[3527]
4,73,"[4, 3]","[10, 10]","[2, 1]",[2],[5],[3],[50],[1],[1],[4],[3320]
4,74,"[4, 3]","[20, 20]","[2, 2]",[2],[5],[4],[100],[2],[2],[4],[3086]
4,75,"[3, 4]","[10, 60]","[2, 1]",[2],[5],[3],[50],[1],[1],[4],[2077]
4,76,"[4, 3]","[30, 10]","[2, 2]",[2],[1],[4],[30],[3],[2],[3],[1912]
4,77,"[1, 2]","[40, 10]","[1, 2]",[2],[5],[2],[50],[1],[2],[1],[8320]
4,78,"[3, 4]","[40, 10]","[2, 1]",[2],[1],[3],[40],[4],[1],[3],[1828]
4,79,"[4, 3]","[10, 20]","[2, 2]",[2],[5],[4],[50],[1],[2],[4],[3927]
4,80,"[1, 2]","[20, 0]","[1, 1]",[2],[1],[1],[20],[2],[1],[1],[3927]
5,1,"[1, 2]","[60, 20]","[1, 2]",[1],[5],[2],[100],[2],[2],[1],[8182]
5,2,"[4, 3]","[10, 90]","[2, 2]",[1],[5],[4],[50],[1],[2],[4],[2730]
5,3,"[2, 1]","[10, 70]","[1, 1]",[1],[1],[1],[70],[7],[1],[2],[283558]
5,4,"[4, 3]","[30, 70]","[2, 1]",[1],[5],[3],[350],[7],[1],[4],[4095]
5,5,"[4, 3]","[50, 90]","[2, 2]",[1],[1],[4],[50],[5],[2],[4],[2113]
5,6,"[3, 4]","[80, 60]","[2, 2]",[1],[5],[4],[300],[6],[2],[3],[2246]
5,7,"[3, 4]","[60, 40]","[2, 2]",[1],[5],[4],[200],[4],[2],[3],[3729]
5,8,"[3, 4]","[50, 10]","[2, 2]",[1],[1],[4],[10],[1],[2],[3],[2096]
5,9,"[4, 3]","[10, 70]","[2, 2]",[1],[1],[4],[10],[1],[2],[4],[1745]
5,10,"[1, 2]","[60, 20]","[1, 1]",[1],[5],[1],[300],[6],[1],[1],[3745]
5,11,"[1, 2]","[60, 10]","[1, 1]",[1],[1],[1],[60],[6],[1],[1],[2521]
5,12,"[1, 2]","[30, 10]","[1, 2]",[1],[1],[2],[10],[1],[2],[1],[1873]
5,13,"[2, 1]","[0, 10]","[1, 1]",[1],[1],[1],[10],[1],[1],[2],[3255]
5,14,"[1, 2]","[20, 0]","[1, 2]",[1],[5],[2],[0],[0],[2],[1],[3378]
5,15,"[1, 2]","[30, 10]","[1, 1]",[1],[5],[1],[150],[3],[1],[1],[1822]
5,16,"[2, 1]","[20, 20]","[1, 1]",[1],[1],[1],[20],[2],[1],[2],[3021]
5,17,"[4, 3]","[10, 40]","[2, 2]",[1],[1],[4],[10],[1],[2],[4],[3705]
5,18,"[4, 3]","[20, 30]","[2, 2]",[1],[5],[4],[100],[2],[2],[4],[4713]
5,19,"[2, 1]","[30, 10]","[1, 2]",[1],[5],[2],[150],[3],[2],[1],[2195]
5,20,"[2, 1]","[50, 10]","[1, 2]",[1],[5],[2],[250],[5],[2],[1],[40161]
5,21,"[3, 4]","[20, 60]","[2, 2]",[1],[1],[4],[60],[6],[2],[4],[2637]
5,22,"[2, 1]","[90, 40]","[1, 1]",[1],[5],[1],[200],[4],[1],[1],[2663]
5,23,"[1, 2]","[50, 80]","[1, 1]",[1],[5],[1],[250],[5],[1],[2],[2055]
5,24,"[4, 3]","[60, 50]","[2, 1]",[1],[1],[3],[50],[5],[1],[3],[3572]
5,25,"[3, 4]","[40, 70]","[2, 2]",[1],[1],[4],[70],[7],[2],[4],[3112]
5,26,"[1, 2]","[20, 80]","[1, 1]",[1],[5],[1],[100],[2],[1],[2],[3438]
5,27,"[4, 3]","[80, 30]","[2, 1]",[1],[5],[3],[150],[3],[1],[3],[3254]
5,28,"[4, 3]","[80, 40]","[2, 2]",[1],[5],[4],[400],[8],[2],[3],[2988]
5,29,"[1, 2]","[40, 80]","[1, 2]",[1],[1],[2],[80],[8],[2],[2],[2912]
5,30,"[2, 1]","[80, 60]","[1, 1]",[1],[5],[1],[300],[6],[1],[1],[2405]
5,31,"[3, 4]","[10, 70]","[2, 1]",[1],[1],[3],[10],[1],[1],[4],[3146]
5,32,"[1, 2]","[10, 90]","[1, 2]",[1],[1],[2],[90],[9],[2],[2],[1896]
5,33,"[2, 1]","[70, 40]","[1, 2]",[1],[5],[2],[350],[7],[2],[1],[1981]
5,34,"[1, 2]","[60, 70]","[1, 2]",[1],[1],[2],[70],[7],[2],[2],[2296]
5,35,"[3, 4]","[60, 70]","[2, 1]",[1],[1],[3],[60],[6],[1],[4],[2430]
5,36,"[4, 3]","[70, 60]","[2, 1]",[1],[5],[3],[300],[6],[1],[3],[2531]
5,37,"[1, 2]","[60, 60]","[1, 1]",[1],[5],[1],[300],[6],[1],[1],[2697]
5,38,"[2, 1]","[80, 40]","[1, 2]",[1],[1],[2],[80],[8],[2],[1],[3638]
5,39,"[3, 4]","[40, 70]","[2, 2]",[1],[1],[4],[70],[7],[2],[4],[2650]
5,40,"[2, 1]","[60, 20]","[1, 1]",[1],[5],[1],[100],[2],[1],[1],[3213]
5,41,"[4, 3]","[90, 50]","[2, 1]",[2],[5],[3],[250],[5],[1],[3],[23406]
5,42,"[1, 2]","[30, 90]","[1, 1]",[2],[1],[1],[30],[3],[1],[2],[2105]
5,43,"[1, 2]","[60, 60]","[1, 2]",[2],[1],[2],[60],[6],[2],[1],[1771]
5,44,"[2, 1]","[90, 30]","[1, 2]",[2],[1],[2],[90],[9],[2],[1],[2088]
5,45,"[1, 2]","[40, 90]","[1, 1]",[2],[1],[1],[40],[4],[1],[2],[1971]
5,46,"[2, 1]","[70, 40]","[1, 1]",[2],[5],[1],[200],[4],[1],[1],[2370]
5,47,"[1, 2]","[40, 60]","[1, 2]",[2],[5],[2],[300],[6],[2],[2],[2847]
5,48,"[3, 4]","[90, 60]","[2, 2]",[2],[5],[4],[300],[6],[2],[3],[4788]
5,49,"[1, 2]","[90, 60]","[1, 1]",[2],[1],[1],[90],[9],[1],[1],[2312]
5,50,"[3, 4]","[80, 80]","[2, 1]",[2],[1],[3],[80],[8],[1],[3],[1912]
5,51,"[3, 4]","[90, 80]","[2, 2]",[2],[1],[4],[80],[8],[2],[3],[1837]
5,52,"[3, 4]","[70, 80]","[2, 1]",[2],[5],[3],[350],[7],[1],[4],[2021]
5,53,"[3, 4]","[70, 70]","[2, 1]",[2],[5],[3],[350],[7],[1],[3],[2047]
5,54,"[2, 1]","[80, 60]","[1, 2]",[2],[5],[2],[400],[8],[2],[1],[1853]
5,55,"[2, 1]","[80, 80]","[1, 2]",[2],[1],[2],[80],[8],[2],[2],[1903]
5,56,"[4, 3]","[80, 70]","[2, 1]",[2],[5],[3],[350],[7],[1],[3],[1838]
5,57,"[3, 4]","[80, 50]","[2, 1]",[2],[5],[3],[400],[8],[1],[3],[2264]
5,58,"[4, 3]","[20, 90]","[2, 2]",[2],[1],[4],[20],[2],[2],[4],[2097]
5,59,"[1, 2]","[70, 40]","[1, 1]",[2],[5],[1],[350],[7],[1],[1],[2554]
5,60,"[2, 1]","[20, 80]","[1, 1]",[2],[5],[1],[400],[8],[1],[2],[2538]
5,61,"[3, 4]","[70, 30]","[2, 1]",[2],[1],[3],[70],[7],[1],[3],[2697]
5,62,"[1, 2]","[70, 0]","[1, 2]",[2],[5],[2],[0],[0],[2],[1],[2196]
5,63,"[3, 4]","[50, 40]","[2, 1]",[2],[1],[3],[50],[5],[1],[3],[2430]
5,64,"[4, 3]","[10, 50]","[2, 1]",[2],[5],[3],[250],[5],[1],[4],[2237]
5,65,"[3, 4]","[60, 10]","[2, 1]",[2],[5],[3],[300],[6],[1],[3],[2588]
5,66,"[3, 4]","[40, 50]","[2, 1]",[2],[1],[3],[40],[4],[1],[4],[1834]
5,67,"[2, 1]","[30, 80]","[1, 2]",[2],[1],[2],[30],[3],[2],[2],[2589]
5,68,"[1, 2]","[80, 70]","[1, 2]",[2],[5],[2],[350],[7],[2],[1],[2105]
5,69,"[1, 2]","[70, 80]","[1, 2]",[2],[5],[2],[400],[8],[2],[2],[1779]
5,70,"[2, 1]","[80, 90]","[1, 1]",[2],[1],[1],[90],[9],[1],[2],[2454]
5,71,"[3, 4]","[80, 70]","[2, 2]",[2],[1],[4],[70],[7],[2],[3],[2661]
5,72,"[4, 3]","[60, 90]","[2, 1]",[2],[1],[3],[90],[9],[1],[4],[2212]
5,73,"[1, 2]","[80, 40]","[1, 1]",[2],[5],[1],[400],[8],[1],[1],[2265]
5,74,"[1, 2]","[80, 70]","[1, 1]",[2],[1],[1],[80],[8],[1],[1],[2255]
5,75,"[4, 3]","[50, 90]","[2, 1]",[2],[1],[3],[90],[9],[1],[4],[50653]
5,76,"[1, 2]","[80, 40]","[1, 1]",[2],[1],[1],[80],[8],[1],[1],[1763]
5,77,"[1, 2]","[60, 0]","[1, 2]",[2],[1],[2],[0],[0],[2],[1],[5620]
5,78,"[4, 3]","[20, 50]","[2, 1]",[2],[1],[3],[50],[5],[1],[4],[2413]
5,79,"[1, 2]","[30, 20]","[1, 1]",[2],[5],[1],[150],[3],[1],[1],[2573]
5,80,"[4, 3]","[50, 40]","[2, 2]",[2],[5],[4],[250],[5],[2],[3],[2120]
6,1,"[3, 4]","[20, 60]","[2, 1]",[1],[5],[3],[100],[2],[1],[4],[4749]
6,2,"[2, 1]","[70, 10]","[1, 1]",[1],[5],[1],[50],[1],[1],[1],[3258]
6,3,"[2, 1]","[60, 20]","[1, 1]",[1],[1],[1],[20],[2],[1],[1],[2075]
6,4,"[4, 3]","[40, 30]","[2, 2]",[1],[5],[4],[200],[4],[2],[3],[2207]
6,5,"[2, 1]","[40, 30]","[1, 2]",[1],[1],[2],[40],[4],[2],[1],[2357]
6,6,"[4, 3]","[50, 60]","[2, 1]",[1],[1],[3],[60],[6],[1],[4],[2608]
6,7,"[1, 2]","[60, 20]","[1, 1]",[1],[1],[1],[60],[6],[1],[1],[2740]
6,8,"[1, 2]","[30, 30]","[1, 2]",[1],[1],[2],[30],[3],[2],[1],[2158]
6,9,"[2, 1]","[30, 20]","[1, 1]",[1],[5],[1],[100],[2],[1],[1],[2207]
6,10,"[4, 3]","[30, 0]","[2, 1]",[1],[1],[3],[0],[0],[1],[3],[3389]
6,11,"[1, 2]","[0, 60]","[1, 2]",[1],[5],[2],[300],[6],[2],[2],[2403]
6,12,"[1, 2]","[40, 80]","[1, 2]",[1],[5],[2],[400],[8],[2],[2],[2340]
6,13,"[4, 3]","[60, 60]","[2, 2]",[1],[5],[4],[300],[6],[2],[4],[2141]
6,14,"[4, 3]","[40, 90]","[2, 2]",[1],[5],[4],[200],[4],[2],[4],[2138]
6,15,"[3, 4]","[60, 80]","[2, 2]",[1],[1],[4],[80],[8],[2],[4],[1907]
6,16,"[2, 1]","[70, 70]","[1, 1]",[1],[1],[1],[70],[7],[1],[2],[2639]
6,17,"[2, 1]","[70, 70]","[1, 2]",[1],[5],[2],[350],[7],[2],[2],[2000]
6,18,"[3, 4]","[30, 60]","[2, 2]",[1],[1],[4],[60],[6],[2],[4],[2223]
6,19,"[1, 2]","[40, 60]","[1, 1]",[1],[5],[1],[200],[4],[1],[2],[3173]
6,20,"[1, 2]","[10, 50]","[1, 1]",[1],[5],[1],[50],[1],[1],[2],[1875]
6,21,"[4, 3]","[50, 10]","[2, 1]",[1],[1],[3],[10],[1],[1],[3],[2239]
6,22,"[3, 4]","[20, 60]","[2, 2]",[1],[5],[4],[300],[6],[2],[4],[2257]
6,23,"[1, 2]","[50, 30]","[1, 2]",[1],[5],[2],[150],[3],[2],[1],[3904]
6,24,"[4, 3]","[60, 60]","[2, 2]",[1],[5],[4],[300],[6],[2],[4],[2473]
6,25,"[1, 2]","[70, 70]","[1, 2]",[1],[5],[2],[350],[7],[2],[1],[2874]
6,26,"[3, 4]","[60, 70]","[2, 2]",[1],[5],[4],[350],[7],[2],[4],[2107]
6,27,"[2, 1]","[70, 40]","[1, 2]",[1],[5],[2],[350],[7],[2],[1],[2073]
6,28,"[1, 2]","[30, 60]","[1, 2]",[1],[5],[2],[300],[6],[2],[2],[1905]
6,29,"[4, 3]","[60, 60]","[2, 2]",[1],[5],[4],[300],[6],[2],[4],[2141]
6,30,"[1, 2]","[70, 70]","[1, 2]",[1],[1],[2],[70],[7],[2],[1],[1824]
6,31,"[1, 2]","[50, 30]","[1, 1]",[1],[1],[1],[50],[5],[1],[1],[2223]
6,32,"[3, 4]","[20, 40]","[2, 2]",[1],[5],[4],[200],[4],[2],[4],[2525]
6,33,"[1, 2]","[10, 60]","[1, 2]",[1],[5],[2],[300],[6],[2],[2],[2175]
6,34,"[2, 1]","[30, 0]","[1, 2]",[1],[1],[2],[30],[3],[2],[1],[2206]
6,35,"[4, 3]","[50, 0]","[2, 1]",[1],[1],[3],[0],[0],[1],[3],[2356]
6,36,"[1, 2]","[10, 50]","[1, 2]",[1],[1],[2],[50],[5],[2],[2],[2473]
6,37,"[1, 2]","[0, 80]","[1, 2]",[1],[1],[2],[80],[8],[2],[2],[2605]
6,38,"[2, 1]","[70, 20]","[1, 2]",[1],[1],[2],[70],[7],[2],[1],[2174]
6,39,"[2, 1]","[50, 10]","[1, 2]",[1],[1],[2],[50],[5],[2],[1],[1756]
6,40,"[2, 1]","[30, 20]","[1, 1]",[1],[1],[1],[20],[2],[1],[1],[2873]
6,41,"[1, 2]","[10, 30]","[1, 1]",[2],[1],[1],[10],[1],[1],[2],[3702]
6,42,"[3, 4]","[0, 20]","[2, 2]",[2],[5],[4],[100],[2],[2],[4],[2574]
6,43,"[4, 3]","[10, 0]","[2, 2]",[2],[1],[4],[10],[1],[2],[3],[1771]
6,44,"[1, 2]","[30, 20]","[1, 1]",[2],[5],[1],[150],[3],[1],[1],[2039]
6,45,"[2, 1]","[40, 10]","[1, 1]",[2],[5],[1],[50],[1],[1],[1],[1904]
6,46,"[3, 4]","[0, 30]","[2, 1]",[2],[5],[3],[0],[0],[1],[4],[1940]
6,47,"[3, 4]","[30, 40]","[2, 2]",[2],[5],[4],[200],[4],[2],[4],[2123]
6,48,"[4, 3]","[20, 20]","[2, 2]",[2],[1],[4],[20],[2],[2],[4],[2006]
6,49,"[4, 3]","[30, 10]","[2, 1]",[2],[5],[3],[50],[1],[1],[3],[2140]
6,50,"[2, 1]","[30, 30]","[1, 1]",[2],[5],[1],[150],[3],[1],[2],[2623]
6,51,"[3, 4]","[20, 40]","[2, 1]",[2],[1],[3],[20],[2],[1],[4],[2389]
6,52,"[2, 1]","[30, 30]","[1, 2]",[2],[1],[2],[30],[3],[2],[2],[2040]
6,53,"[1, 2]","[60, 20]","[1, 1]",[2],[1],[1],[60],[6],[1],[1],[2489]
6,54,"[1, 2]","[80, 40]","[1, 2]",[2],[5],[2],[200],[4],[2],[1],[5957]
6,55,"[3, 4]","[80, 40]","[2, 2]",[2],[1],[4],[40],[4],[2],[3],[2556]
6,56,"[2, 1]","[0, 80]","[1, 1]",[2],[1],[1],[80],[8],[1],[2],[2154]
6,57,"[4, 3]","[0, 80]","[2, 1]",[2],[1],[3],[80],[8],[1],[4],[3023]
6,58,"[4, 3]","[20, 90]","[2, 1]",[2],[5],[3],[450],[9],[1],[4],[4304]
6,59,"[2, 1]","[30, 60]","[1, 1]",[2],[1],[1],[60],[6],[1],[2],[3874]
6,60,"[3, 4]","[70, 50]","[2, 2]",[2],[5],[4],[250],[5],[2],[3],[3724]
6,61,"[4, 3]","[80, 60]","[2, 2]",[2],[5],[4],[400],[8],[2],[3],[1990]
6,62,"[3, 4]","[50, 50]","[2, 2]",[2],[5],[4],[250],[5],[2],[3],[1688]
6,63,"[2, 1]","[50, 50]","[1, 2]",[2],[5],[2],[250],[5],[2],[2],[2124]
6,64,"[1, 2]","[60, 50]","[1, 2]",[2],[1],[2],[50],[5],[2],[1],[1938]
6,65,"[3, 4]","[40, 20]","[2, 1]",[2],[1],[3],[40],[4],[1],[3],[2306]
6,66,"[4, 3]","[10, 30]","[2, 2]",[2],[1],[4],[10],[1],[2],[4],[4023]
6,67,"[1, 2]","[40, 10]","[1, 1]",[2],[1],[1],[40],[4],[1],[1],[2025]
6,68,"[4, 3]","[20, 0]","[2, 2]",[2],[5],[4],[100],[2],[2],[3],[6007]
6,69,"[2, 1]","[50, 20]","[1, 1]",[2],[1],[1],[20],[2],[1],[1],[4358]
6,70,"[3, 4]","[20, 50]","[2, 2]",[2],[5],[4],[250],[5],[2],[4],[2806]
6,71,"[2, 1]","[60, 0]","[1, 2]",[2],[1],[2],[60],[6],[2],[1],[2255]
6,72,"[4, 3]","[60, 0]","[2, 2]",[2],[5],[4],[300],[6],[2],[3],[2189]
6,73,"[3, 4]","[10, 70]","[2, 2]",[2],[1],[4],[70],[7],[2],[4],[2656]
6,74,"[1, 2]","[40, 70]","[1, 2]",[2],[1],[2],[70],[7],[2],[2],[1889]
6,75,"[2, 1]","[70, 60]","[1, 2]",[2],[5],[2],[350],[7],[2],[1],[2374]
6,76,"[2, 1]","[60, 70]","[1, 2]",[2],[5],[2],[300],[6],[2],[2],[2023]
6,77,"[3, 4]","[70, 50]","[2, 2]",[2],[1],[4],[50],[5],[2],[3],[3041]
6,78,"[3, 4]","[90, 60]","[2, 2]",[2],[1],[4],[60],[6],[2],[3],[2023]
6,79,"[3, 4]","[60, 60]","[2, 2]",[2],[1],[4],[60],[6],[2],[3],[2440]
6,80,"[4, 3]","[70, 60]","[2, 1]",[2],[5],[3],[300],[6],[1],[3],[2822]
6,1,"[4, 3]","[20, 50]","[2, 2]",[1],[1],[4],[20],[2],[2],[4],[3840]
6,2,"[2, 1]","[20, 80]","[1, 1]",[1],[5],[1],[400],[8],[1],[2],[1923]
6,3,"[4, 3]","[0, 40]","[2, 1]",[1],[1],[3],[40],[4],[1],[4],[1756]
6,4,"[3, 4]","[40, 30]","[2, 2]",[1],[1],[4],[30],[3],[2],[3],[1989]
6,5,"[1, 2]","[0, 10]","[1, 1]",[1],[5],[1],[0],[0],[1],[2],[2507]
6,6,"[2, 1]","[10, 40]","[1, 2]",[1],[5],[2],[50],[1],[2],[2],[2156]
6,7,"[2, 1]","[30, 30]","[1, 2]",[1],[1],[2],[30],[3],[2],[2],[2888]
6,8,"[4, 3]","[40, 10]","[2, 1]",[1],[1],[3],[10],[1],[1],[3],[2274]
6,9,"[4, 3]","[70, 20]","[2, 2]",[1],[5],[4],[350],[7],[2],[3],[2204]
6,10,"[3, 4]","[30, 80]","[2, 2]",[1],[5],[4],[400],[8],[2],[4],[2108]
6,11,"[4, 3]","[80, 50]","[2, 2]",[1],[5],[4],[400],[8],[2],[3],[2056]
6,12,"[1, 2]","[30, 80]","[1, 2]",[1],[5],[2],[400],[8],[2],[2],[1839]
6,13,"[3, 4]","[30, 40]","[2, 2]",[1],[1],[4],[40],[4],[2],[4],[2288]
6,14,"[4, 3]","[50, 0]","[2, 2]",[1],[1],[4],[50],[5],[2],[3],[1841]
6,15,"[4, 3]","[20, 0]","[2, 2]",[1],[1],[4],[20],[2],[2],[3],[2055]
6,16,"[3, 4]","[10, 30]","[2, 1]",[1],[5],[3],[50],[1],[1],[4],[1972]
6,17,"[3, 4]","[30, 30]","[2, 2]",[1],[5],[4],[150],[3],[2],[3],[2190]
6,18,"[4, 3]","[50, 40]","[2, 2]",[1],[5],[4],[250],[5],[2],[3],[1837]
6,19,"[1, 2]","[10, 70]","[1, 2]",[1],[1],[2],[70],[7],[2],[2],[2125]
6,20,"[2, 1]","[70, 10]","[1, 2]",[1],[1],[2],[70],[7],[2],[1],[1738]
6,21,"[3, 4]","[30, 60]","[2, 2]",[1],[5],[4],[300],[6],[2],[4],[2191]
6,22,"[1, 2]","[40, 70]","[1, 2]",[1],[1],[2],[70],[7],[2],[2],[2041]
6,23,"[4, 3]","[60, 30]","[2, 2]",[1],[1],[4],[60],[6],[2],[3],[2907]
6,24,"[1, 2]","[10, 80]","[1, 2]",[1],[1],[2],[80],[8],[2],[2],[1788]
6,25,"[3, 4]","[10, 80]","[2, 2]",[1],[5],[4],[400],[8],[2],[4],[1872]
6,26,"[3, 4]","[0, 70]","[2, 2]",[1],[1],[4],[70],[7],[2],[4],[1940]
6,27,"[2, 1]","[40, 30]","[1, 2]",[1],[1],[2],[40],[4],[2],[1],[1956]
6,28,"[1, 2]","[50, 10]","[1, 2]",[1],[5],[2],[50],[1],[2],[1],[1707]
6,29,"[3, 4]","[20, 30]","[2, 1]",[1],[5],[3],[100],[2],[1],[4],[2474]
6,30,"[4, 3]","[30, 30]","[2, 2]",[1],[1],[4],[30],[3],[2],[4],[2090]
6,31,"[4, 3]","[10, 20]","[2, 1]",[1],[5],[3],[100],[2],[1],[4],[2425]
6,32,"[4, 3]","[10, 10]","[2, 2]",[1],[5],[4],[50],[1],[2],[4],[1874]
6,33,"[4, 3]","[0, 20]","[2, 2]",[1],[1],[4],[0],[0],[2],[4],[1939]
6,34,"[1, 2]","[10, 0]","[1, 1]",[1],[5],[1],[50],[1],[1],[1],[2790]
6,35,"[2, 1]","[10, 0]","[1, 1]",[1],[5],[1],[0],[0],[1],[1],[1805]
6,36,"[3, 4]","[40, 10]","[2, 2]",[1],[1],[4],[10],[1],[2],[3],[2257]
6,37,"[4, 3]","[10, 50]","[2, 2]",[1],[1],[4],[10],[1],[2],[4],[2756]
6,38,"[2, 1]","[20, 80]","[1, 1]",[1],[1],[1],[80],[8],[1],[2],[1888]
6,39,"[3, 4]","[60, 20]","[2, 1]",[1],[1],[3],[60],[6],[1],[3],[1839]
6,40,"[3, 4]","[60, 10]","[2, 1]",[1],[5],[3],[300],[6],[1],[3],[1938]
6,41,"[2, 1]","[20, 60]","[1, 2]",[2],[5],[2],[100],[2],[2],[2],[4281]
6,42,"[1, 2]","[90, 40]","[1, 1]",[2],[5],[1],[450],[9],[1],[1],[2158]
6,43,"[2, 1]","[50, 60]","[1, 1]",[2],[5],[1],[300],[6],[1],[2],[1773]
6,44,"[1, 2]","[80, 40]","[1, 1]",[2],[1],[1],[80],[8],[1],[1],[1706]
6,45,"[1, 2]","[60, 50]","[1, 1]",[2],[1],[1],[60],[6],[1],[1],[1907]
6,46,"[2, 1]","[40, 50]","[1, 1]",[2],[5],[1],[250],[5],[1],[2],[1740]
6,47,"[4, 3]","[30, 40]","[2, 1]",[2],[5],[3],[200],[4],[1],[4],[2407]
6,48,"[1, 2]","[0, 10]","[1, 1]",[2],[1],[1],[0],[0],[1],[2],[1857]
6,49,"[3, 4]","[10, 10]","[2, 2]",[2],[1],[4],[10],[1],[2],[3],[2107]
6,50,"[1, 2]","[30, 30]","[1, 2]",[2],[5],[2],[150],[3],[2],[1],[2040]
6,51,"[2, 1]","[10, 60]","[1, 2]",[2],[1],[2],[10],[1],[2],[2],[1723]
6,52,"[4, 3]","[0, 70]","[2, 1]",[2],[5],[3],[350],[7],[1],[4],[2157]
6,53,"[2, 1]","[30, 60]","[1, 1]",[2],[1],[1],[60],[6],[1],[2],[2057]
6,54,"[4, 3]","[30, 60]","[2, 1]",[2],[1],[3],[60],[6],[1],[4],[1741]
6,55,"[1, 2]","[10, 20]","[1, 1]",[2],[5],[1],[50],[1],[1],[2],[2339]
6,56,"[1, 2]","[20, 10]","[1, 2]",[2],[5],[2],[50],[1],[2],[1],[1743]
6,57,"[4, 3]","[20, 0]","[2, 2]",[2],[1],[4],[20],[2],[2],[3],[2241]
6,58,"[1, 2]","[0, 10]","[1, 1]",[2],[1],[1],[0],[0],[1],[2],[2090]
6,59,"[4, 3]","[20, 10]","[2, 2]",[2],[1],[4],[20],[2],[2],[3],[2255]
6,60,"[1, 2]","[0, 0]","[1, 2]",[2],[5],[2],[0],[0],[2],[1],[1973]
6,61,"[3, 4]","[10, 10]","[2, 1]",[2],[5],[3],[50],[1],[1],[3],[2057]
6,62,"[2, 1]","[10, 10]","[1, 1]",[2],[1],[1],[10],[1],[1],[2],[1990]
6,63,"[4, 3]","[10, 0]","[2, 2]",[2],[5],[4],[50],[1],[2],[3],[3674]
6,64,"[3, 4]","[20, 30]","[2, 1]",[2],[1],[3],[20],[2],[1],[4],[3172]
6,65,"[4, 3]","[90, 30]","[2, 2]",[2],[1],[4],[90],[9],[2],[3],[2508]
6,66,"[3, 4]","[40, 80]","[2, 2]",[2],[5],[4],[400],[8],[2],[4],[2074]
6,67,"[1, 2]","[70, 60]","[1, 2]",[2],[5],[2],[300],[6],[2],[1],[1824]
6,68,"[3, 4]","[60, 20]","[2, 2]",[2],[5],[4],[100],[2],[2],[3],[1925]
6,69,"[3, 4]","[80, 10]","[2, 2]",[2],[5],[4],[50],[1],[2],[3],[2557]
6,70,"[3, 4]","[80, 30]","[2, 1]",[2],[5],[3],[400],[8],[1],[3],[1790]
6,71,"[1, 2]","[70, 50]","[1, 1]",[2],[1],[1],[70],[7],[1],[1],[1838]
6,72,"[3, 4]","[60, 70]","[2, 1]",[2],[1],[3],[60],[6],[1],[4],[1758]
6,73,"[3, 4]","[30, 40]","[2, 1]",[2],[5],[3],[150],[3],[1],[4],[1790]
6,74,"[2, 1]","[60, 50]","[1, 1]",[2],[1],[1],[50],[5],[1],[1],[2256]
6,75,"[1, 2]","[40, 50]","[1, 1]",[2],[1],[1],[40],[4],[1],[2],[1906]
6,76,"[2, 1]","[40, 30]","[1, 1]",[2],[1],[1],[30],[3],[1],[1],[1906]
6,77,"[1, 2]","[20, 40]","[1, 1]",[2],[1],[1],[20],[2],[1],[2],[1756]
6,78,"[2, 1]","[60, 30]","[1, 2]",[2],[5],[2],[300],[6],[2],[1],[2123]
6,79,"[4, 3]","[60, 30]","[2, 2]",[2],[5],[4],[300],[6],[2],[3],[2058]
6,80,"[1, 2]","[20, 30]","[1, 2]",[2],[5],[2],[150],[3],[2],[2],[1774]
7,1,"[1, 2]","[40, 60]","[1, 2]",[1],[5],[2],[300],[6],[2],[2],[80243]
7,2,"[3, 4]","[60, 60]","[2, 2]",[1],[5],[4],[300],[6],[2],[3],[2006]
7,3,"[2, 1]","[40, 50]","[1, 2]",[1],[5],[2],[200],[4],[2],[2],[2299]
7,4,"[2, 1]","[40, 80]","[1, 2]",[1],[1],[2],[40],[4],[2],[2],[1909]
7,5,"[2, 1]","[70, 80]","[1, 1]",[1],[1],[1],[80],[8],[1],[2],[1804]
7,6,"[4, 3]","[50, 80]","[2, 1]",[1],[5],[3],[400],[8],[1],[4],[2256]
7,7,"[2, 1]","[20, 80]","[1, 1]",[1],[5],[1],[400],[8],[1],[2],[4031]
7,8,"[2, 1]","[20, 60]","[1, 1]",[1],[1],[1],[60],[6],[1],[2],[2210]
7,9,"[4, 3]","[50, 60]","[2, 2]",[1],[5],[4],[250],[5],[2],[4],[2109]
7,10,"[3, 4]","[80, 50]","[2, 2]",[1],[1],[4],[50],[5],[2],[3],[1842]
7,11,"[4, 3]","[60, 90]","[2, 2]",[1],[1],[4],[60],[6],[2],[4],[4710]
7,12,"[3, 4]","[80, 60]","[2, 2]",[1],[1],[4],[60],[6],[2],[3],[4062]
7,13,"[1, 2]","[60, 80]","[1, 1]",[1],[5],[1],[300],[6],[1],[2],[2326]
7,14,"[4, 3]","[60, 60]","[2, 1]",[1],[1],[3],[60],[6],[1],[4],[3909]
7,15,"[2, 1]","[50, 50]","[1, 1]",[1],[1],[1],[50],[5],[1],[2],[4223]
7,16,"[4, 3]","[50, 30]","[2, 2]",[1],[5],[4],[250],[5],[2],[3],[4423]
7,17,"[3, 4]","[30, 30]","[2, 2]",[1],[1],[4],[30],[3],[2],[3],[2741]
7,18,"[1, 2]","[70, 10]","[1, 2]",[1],[5],[2],[50],[1],[2],[1],[4279]
7,19,"[4, 3]","[30, 60]","[2, 1]",[1],[1],[3],[60],[6],[1],[4],[3983]
7,20,"[3, 4]","[90, 10]","[2, 2]",[1],[5],[4],[50],[1],[2],[3],[2320]
7,21,"[4, 3]","[50, 80]","[2, 2]",[1],[5],[4],[250],[5],[2],[4],[2700]
7,22,"[2, 1]","[30, 90]","[1, 2]",[1],[5],[2],[150],[3],[2],[2],[3759]
7,23,"[2, 1]","[0, 80]","[1, 2]",[1],[5],[2],[0],[0],[2],[2],[1897]
7,24,"[4, 3]","[10, 50]","[2, 1]",[1],[5],[3],[250],[5],[1],[4],[2075]
7,25,"[3, 4]","[10, 0]","[2, 1]",[1],[1],[3],[10],[1],[1],[3],[3547]
7,26,"[3, 4]","[30, 20]","[2, 2]",[1],[1],[4],[20],[2],[2],[3],[5970]
7,27,"[1, 2]","[80, 40]","[1, 2]",[1],[1],[2],[40],[4],[2],[1],[4993]
7,28,"[4, 3]","[60, 50]","[2, 2]",[1],[1],[4],[60],[6],[2],[3],[2692]
7,29,"[3, 4]","[20, 40]","[2, 2]",[1],[1],[4],[40],[4],[2],[4],[2001]
7,30,"[1, 2]","[60, 60]","[1, 1]",[1],[5],[1],[300],[6],[1],[1],[3969]
7,31,"[1, 2]","[80, 90]","[1, 1]",[1],[5],[1],[400],[8],[1],[2],[2600]
7,32,"[3, 4]","[90, 60]","[2, 1]",[1],[1],[3],[90],[9],[1],[3],[2946]
7,33,"[2, 1]","[70, 60]","[1, 1]",[1],[1],[1],[60],[6],[1],[1],[2722]
7,34,"[1, 2]","[50, 70]","[1, 2]",[1],[1],[2],[70],[7],[2],[2],[3775]
7,35,"[1, 2]","[70, 80]","[1, 2]",[1],[1],[2],[80],[8],[2],[2],[2106]
7,36,"[4, 3]","[60, 60]","[2, 2]",[1],[5],[4],[300],[6],[2],[4],[4344]
7,37,"[4, 3]","[70, 60]","[2, 2]",[1],[1],[4],[70],[7],[2],[3],[2114]
7,38,"[2, 1]","[70, 60]","[1, 2]",[1],[1],[2],[70],[7],[2],[1],[3012]
7,39,"[3, 4]","[70, 60]","[2, 2]",[1],[1],[4],[60],[6],[2],[3],[3751]
7,40,"[4, 3]","[70, 90]","[2, 1]",[1],[5],[3],[450],[9],[1],[4],[2092]
7,41,"[4, 3]","[70, 90]","[2, 2]",[2],[5],[4],[350],[7],[2],[4],[13292]
7,42,"[4, 3]","[80, 50]","[2, 2]",[2],[5],[4],[400],[8],[2],[3],[2007]
7,43,"[2, 1]","[50, 50]","[1, 2]",[2],[5],[2],[250],[5],[2],[2],[2720]
7,44,"[3, 4]","[60, 30]","[2, 2]",[2],[5],[4],[150],[3],[2],[3],[3081]
7,45,"[1, 2]","[70, 40]","[1, 2]",[2],[1],[2],[40],[4],[2],[1],[2659]
7,46,"[1, 2]","[30, 20]","[1, 1]",[2],[5],[1],[150],[3],[1],[1],[2578]
7,47,"[2, 1]","[10, 30]","[1, 1]",[2],[5],[1],[150],[3],[1],[2],[2334]
7,48,"[3, 4]","[40, 30]","[2, 1]",[2],[1],[3],[40],[4],[1],[3],[3061]
7,49,"[1, 2]","[60, 0]","[1, 2]",[2],[5],[2],[0],[0],[2],[1],[3422]
7,50,"[4, 3]","[20, 40]","[2, 1]",[2],[1],[3],[40],[4],[1],[4],[3423]
7,51,"[1, 2]","[90, 10]","[1, 1]",[2],[1],[1],[90],[9],[1],[1],[4595]
7,52,"[3, 4]","[60, 10]","[2, 2]",[2],[1],[4],[10],[1],[2],[3],[3396]
7,53,"[4, 3]","[40, 60]","[2, 1]",[2],[5],[3],[300],[6],[1],[4],[2537]
7,54,"[1, 2]","[50, 60]","[1, 1]",[2],[5],[1],[250],[5],[1],[2],[3915]
7,55,"[3, 4]","[70, 70]","[2, 1]",[2],[1],[3],[70],[7],[1],[3],[3127]
7,56,"[2, 1]","[60, 50]","[1, 2]",[2],[1],[2],[60],[6],[2],[1],[3053]
7,57,"[4, 3]","[50, 60]","[2, 1]",[2],[1],[3],[60],[6],[1],[4],[2798]
7,58,"[1, 2]","[50, 90]","[1, 2]",[2],[5],[2],[450],[9],[2],[2],[3338]
7,59,"[3, 4]","[60, 80]","[2, 2]",[2],[1],[4],[80],[8],[2],[4],[1876]
7,60,"[1, 2]","[40, 90]","[1, 1]",[2],[5],[1],[200],[4],[1],[2],[3888]
7,61,"[4, 3]","[70, 10]","[2, 1]",[2],[1],[3],[10],[1],[1],[3],[3156]
7,62,"[3, 4]","[20, 70]","[2, 2]",[2],[5],[4],[350],[7],[2],[4],[2028]
7,63,"[3, 4]","[50, 50]","[2, 2]",[2],[5],[4],[250],[5],[2],[3],[2164]
7,64,"[2, 1]","[50, 90]","[1, 2]",[2],[1],[2],[50],[5],[2],[2],[6061]
7,65,"[3, 4]","[80, 80]","[2, 1]",[2],[5],[3],[400],[8],[1],[3],[4119]
7,66,"[2, 1]","[60, 40]","[1, 1]",[2],[1],[1],[40],[4],[1],[1],[4454]
7,67,"[4, 3]","[90, 40]","[2, 2]",[2],[1],[4],[90],[9],[2],[3],[1800]
7,68,"[1, 2]","[50, 80]","[1, 2]",[2],[1],[2],[80],[8],[2],[2],[3153]
7,69,"[4, 3]","[20, 40]","[2, 1]",[2],[1],[3],[40],[4],[1],[4],[2492]
7,70,"[2, 1]","[20, 10]","[1, 2]",[2],[5],[2],[100],[2],[2],[1],[2852]
7,71,"[2, 1]","[40, 10]","[1, 2]",[2],[1],[2],[40],[4],[2],[1],[3092]
7,72,"[3, 4]","[20, 60]","[2, 2]",[2],[5],[4],[300],[6],[2],[4],[2094]
7,73,"[4, 3]","[50, 30]","[2, 2]",[2],[5],[4],[250],[5],[2],[3],[1995]
7,74,"[1, 2]","[40, 60]","[1, 2]",[2],[5],[2],[300],[6],[2],[2],[3189]
7,75,"[1, 2]","[30, 70]","[1, 2]",[2],[5],[2],[350],[7],[2],[2],[2206]
7,76,"[1, 2]","[50, 60]","[1, 2]",[2],[5],[2],[300],[6],[2],[2],[3424]
7,77,"[3, 4]","[30, 80]","[2, 2]",[2],[1],[4],[80],[8],[2],[4],[2134]
7,78,"[2, 1]","[40, 10]","[1, 1]",[2],[5],[1],[50],[1],[1],[1],[1957]
7,79,"[1, 2]","[10, 20]","[1, 1]",[2],[1],[1],[10],[1],[1],[2],[2932]
7,80,"[2, 1]","[0, 0]","[1, 2]",[2],[5],[2],[0],[0],[2],[2],[3944]
8,1,"[4, 3]","[40, 80]","[2, 1]",[1],[1],[3],[80],[8],[1],[4],[7275]
8,2,"[2, 1]","[40, 80]","[1, 1]",[1],[5],[1],[400],[8],[1],[2],[2362]
8,3,"[4, 3]","[90, 70]","[2, 1]",[1],[5],[3],[350],[7],[1],[3],[2147]
8,4,"[3, 4]","[80, 90]","[2, 1]",[1],[1],[3],[80],[8],[1],[4],[2233]
8,5,"[4, 3]","[70, 70]","[2, 1]",[1],[5],[3],[350],[7],[1],[4],[2101]
8,6,"[2, 1]","[40, 80]","[1, 1]",[1],[1],[1],[80],[8],[1],[2],[2395]
8,7,"[4, 3]","[30, 60]","[2, 1]",[1],[5],[3],[300],[6],[1],[4],[2453]
8,8,"[3, 4]","[40, 10]","[2, 1]",[1],[1],[3],[40],[4],[1],[3],[2391]
8,9,"[2, 1]","[10, 50]","[1, 1]",[1],[1],[1],[50],[5],[1],[2],[4577]
8,10,"[3, 4]","[40, 0]","[2, 1]",[1],[5],[3],[200],[4],[1],[3],[2217]
8,11,"[3, 4]","[40, 20]","[2, 1]",[1],[1],[3],[40],[4],[1],[3],[2333]
8,12,"[4, 3]","[0, 40]","[2, 1]",[1],[1],[3],[40],[4],[1],[4],[2201]
8,13,"[1, 2]","[60, 10]","[1, 1]",[1],[5],[1],[300],[6],[1],[1],[2747]
8,14,"[1, 2]","[50, 20]","[1, 1]",[1],[1],[1],[50],[5],[1],[1],[2231]
8,15,"[3, 4]","[30, 10]","[2, 1]",[1],[5],[3],[150],[3],[1],[3],[2190]
8,16,"[1, 2]","[20, 10]","[1, 2]",[1],[1],[2],[10],[1],[2],[1],[3095]
8,17,"[2, 1]","[30, 20]","[1, 1]",[1],[1],[1],[20],[2],[1],[1],[1894]
8,18,"[1, 2]","[0, 20]","[1, 1]",[1],[5],[1],[0],[0],[1],[2],[2739]
8,19,"[3, 4]","[0, 10]","[2, 2]",[1],[5],[4],[50],[1],[2],[4],[1985]
8,20,"[1, 2]","[10, 40]","[1, 2]",[1],[5],[2],[200],[4],[2],[2],[2491]
8,21,"[3, 4]","[30, 50]","[2, 2]",[1],[5],[4],[250],[5],[2],[4],[2135]
8,22,"[4, 3]","[70, 50]","[2, 2]",[1],[1],[4],[70],[7],[2],[3],[2052]
8,23,"[4, 3]","[70, 60]","[2, 2]",[1],[1],[4],[70],[7],[2],[3],[2211]
8,24,"[1, 2]","[50, 80]","[1, 2]",[1],[5],[2],[400],[8],[2],[2],[2117]
8,25,"[2, 1]","[70, 40]","[1, 2]",[1],[1],[2],[70],[7],[2],[1],[2039]
8,26,"[3, 4]","[20, 50]","[2, 2]",[1],[1],[4],[50],[5],[2],[4],[2270]
8,27,"[4, 3]","[40, 10]","[2, 2]",[1],[5],[4],[200],[4],[2],[3],[2142]
8,28,"[4, 3]","[70, 0]","[2, 2]",[1],[1],[4],[70],[7],[2],[3],[2276]
8,29,"[4, 3]","[30, 10]","[2, 2]",[1],[1],[4],[30],[3],[2],[3],[2133]
8,30,"[3, 4]","[30, 20]","[2, 2]",[1],[5],[4],[100],[2],[2],[3],[2036]
8,31,"[1, 2]","[0, 30]","[1, 2]",[1],[1],[2],[30],[3],[2],[2],[2265]
8,32,"[2, 1]","[40, 20]","[1, 2]",[1],[5],[2],[200],[4],[2],[1],[2013]
8,33,"[1, 2]","[30, 20]","[1, 2]",[1],[1],[2],[20],[2],[2],[1],[2134]
8,34,"[2, 1]","[20, 30]","[1, 2]",[1],[5],[2],[100],[2],[2],[2],[2033]
8,35,"[4, 3]","[30, 30]","[2, 2]",[1],[5],[4],[150],[3],[2],[4],[2035]
8,36,"[1, 2]","[10, 20]","[1, 2]",[1],[5],[2],[100],[2],[2],[2],[3464]
8,37,"[2, 1]","[30, 0]","[1, 1]",[1],[5],[1],[0],[0],[1],[1],[2885]
8,38,"[2, 1]","[70, 30]","[1, 2]",[1],[1],[2],[70],[7],[2],[1],[1948]
8,39,"[3, 4]","[70, 50]","[2, 2]",[1],[1],[4],[50],[5],[2],[3],[2304]
8,40,"[1, 2]","[60, 90]","[1, 2]",[1],[5],[2],[450],[9],[2],[2],[1984]
8,41,"[2, 1]","[80, 70]","[1, 2]",[2],[1],[2],[80],[8],[2],[1],[9219]
8,42,"[1, 2]","[80, 50]","[1, 2]",[2],[1],[2],[50],[5],[2],[1],[1908]
8,43,"[2, 1]","[30, 70]","[1, 2]",[2],[1],[2],[30],[3],[2],[2],[2600]
8,44,"[1, 2]","[90, 70]","[1, 2]",[2],[1],[2],[70],[7],[2],[1],[1941]
8,45,"[4, 3]","[80, 80]","[2, 2]",[2],[5],[4],[400],[8],[2],[4],[2057]
8,46,"[4, 3]","[90, 70]","[2, 2]",[2],[1],[4],[90],[9],[2],[3],[2121]
8,47,"[2, 1]","[70, 60]","[1, 2]",[2],[1],[2],[70],[7],[2],[1],[2089]
8,48,"[2, 1]","[50, 70]","[1, 2]",[2],[5],[2],[250],[5],[2],[2],[2198]
8,49,"[2, 1]","[80, 60]","[1, 2]",[2],[1],[2],[80],[8],[2],[1],[2257]
8,50,"[4, 3]","[90, 40]","[2, 2]",[2],[1],[4],[90],[9],[2],[3],[2089]
8,51,"[4, 3]","[80, 20]","[2, 2]",[2],[5],[4],[400],[8],[2],[3],[2106]
8,52,"[3, 4]","[0, 50]","[2, 2]",[2],[1],[4],[50],[5],[2],[4],[2017]
8,53,"[2, 1]","[30, 0]","[1, 2]",[2],[5],[2],[150],[3],[2],[1],[2040]
8,54,"[1, 2]","[30, 40]","[1, 2]",[2],[1],[2],[40],[4],[2],[2],[2102]
8,55,"[1, 2]","[20, 30]","[1, 2]",[2],[5],[2],[150],[3],[2],[2],[2005]
8,56,"[3, 4]","[20, 30]","[2, 2]",[2],[5],[4],[150],[3],[2],[4],[2010]
8,57,"[2, 1]","[40, 60]","[1, 2]",[2],[5],[2],[200],[4],[2],[2],[2280]
8,58,"[4, 3]","[50, 40]","[2, 2]",[2],[1],[4],[50],[5],[2],[3],[2219]
8,59,"[2, 1]","[20, 50]","[1, 2]",[2],[5],[2],[100],[2],[2],[2],[2679]
8,60,"[4, 3]","[50, 60]","[2, 2]",[2],[1],[4],[50],[5],[2],[4],[2396]
8,61,"[2, 1]","[40, 60]","[1, 2]",[2],[5],[2],[200],[4],[2],[2],[4552]
8,62,"[1, 2]","[40, 40]","[1, 2]",[2],[5],[2],[200],[4],[2],[1],[3181]
8,63,"[1, 2]","[20, 30]","[1, 2]",[2],[5],[2],[150],[3],[2],[2],[2274]
8,64,"[4, 3]","[30, 10]","[2, 2]",[2],[5],[4],[150],[3],[2],[3],[2251]
8,65,"[3, 4]","[20, 20]","[2, 2]",[2],[5],[4],[100],[2],[2],[3],[2089]
8,66,"[2, 1]","[10, 20]","[1, 2]",[2],[5],[2],[50],[1],[2],[2],[2297]
8,67,"[3, 4]","[40, 10]","[2, 1]",[2],[1],[3],[40],[4],[1],[3],[1994]
8,68,"[3, 4]","[30, 10]","[2, 1]",[2],[1],[3],[30],[3],[1],[3],[2112]
8,69,"[2, 1]","[10, 50]","[1, 1]",[2],[5],[1],[250],[5],[1],[2],[2142]
8,70,"[4, 3]","[0, 50]","[2, 1]",[2],[1],[3],[50],[5],[1],[4],[2848]
8,71,"[2, 1]","[0, 30]","[1, 1]",[2],[1],[1],[30],[3],[1],[2],[2168]
8,72,"[2, 1]","[0, 30]","[1, 1]",[2],[1],[1],[30],[3],[1],[2],[2045]
8,73,"[4, 3]","[10, 10]","[2, 1]",[2],[5],[3],[50],[1],[1],[4],[3350]
8,74,"[4, 3]","[20, 20]","[2, 2]",[2],[5],[4],[100],[2],[2],[4],[2182]
8,75,"[3, 4]","[10, 60]","[2, 2]",[2],[5],[4],[300],[6],[2],[4],[2189]
8,76,"[4, 3]","[30, 10]","[2, 2]",[2],[1],[4],[30],[3],[2],[3],[3743]
8,77,"[1, 2]","[40, 10]","[1, 2]",[2],[5],[2],[50],[1],[2],[1],[2075]
8,78,"[3, 4]","[40, 10]","[2, 1]",[2],[1],[3],[40],[4],[1],[3],[1889]
8,79,"[4, 3]","[10, 20]","[2, 1]",[2],[5],[3],[100],[2],[1],[4],[1992]
8,80,"[1, 2]","[20, 0]","[1, 1]",[2],[1],[1],[20],[2],[1],[1],[2187]
8,1,"[4, 3]","[70, 20]","[2, 2]",[1],[5],[4],[350],[7],[2],[3],[4921]
8,2,"[1, 2]","[10, 60]","[1, 2]",[1],[1],[2],[60],[6],[2],[2],[2359]
8,3,"[2, 1]","[50, 0]","[1, 2]",[1],[5],[2],[250],[5],[2],[1],[2057]
8,4,"[3, 4]","[30, 60]","[2, 2]",[1],[1],[4],[60],[6],[2],[4],[1967]
8,5,"[1, 2]","[30, 40]","[1, 2]",[1],[1],[2],[40],[4],[2],[2],[1748]
8,6,"[4, 3]","[80, 0]","[2, 2]",[1],[1],[4],[80],[8],[2],[3],[2047]
8,7,"[1, 2]","[0, 80]","[1, 2]",[1],[1],[2],[80],[8],[2],[2],[1764]
8,8,"[1, 2]","[20, 90]","[1, 2]",[1],[5],[2],[450],[9],[2],[2],[1852]
8,9,"[2, 1]","[70, 0]","[1, 2]",[1],[1],[2],[70],[7],[2],[1],[1882]
8,10,"[1, 2]","[50, 80]","[1, 2]",[1],[1],[2],[80],[8],[2],[2],[1785]
8,11,"[1, 2]","[50, 90]","[1, 2]",[1],[1],[2],[90],[9],[2],[2],[1792]
8,12,"[1, 2]","[40, 40]","[1, 2]",[1],[5],[2],[200],[4],[2],[1],[2008]
8,13,"[3, 4]","[20, 90]","[2, 2]",[1],[1],[4],[90],[9],[2],[4],[1995]
8,14,"[1, 2]","[40, 70]","[1, 2]",[1],[1],[2],[70],[7],[2],[2],[2320]
8,15,"[3, 4]","[50, 80]","[2, 2]",[1],[5],[4],[400],[8],[2],[4],[2132]
8,16,"[3, 4]","[0, 70]","[2, 2]",[1],[1],[4],[70],[7],[2],[4],[1804]
8,17,"[1, 2]","[40, 90]","[1, 2]",[1],[5],[2],[450],[9],[2],[2],[1977]
8,18,"[3, 4]","[60, 60]","[2, 2]",[1],[1],[4],[60],[6],[2],[3],[3048]
8,19,"[2, 1]","[60, 80]","[1, 2]",[1],[1],[2],[60],[6],[2],[2],[2177]
8,20,"[1, 2]","[70, 70]","[1, 2]",[1],[1],[2],[70],[7],[2],[1],[1846]
8,21,"[1, 2]","[70, 70]","[1, 2]",[1],[1],[2],[70],[7],[2],[1],[1867]
8,22,"[1, 2]","[70, 50]","[1, 2]",[1],[1],[2],[50],[5],[2],[1],[2088]
8,23,"[1, 2]","[70, 20]","[1, 2]",[1],[1],[2],[20],[2],[2],[1],[1759]
8,24,"[4, 3]","[30, 80]","[2, 1]",[1],[5],[3],[400],[8],[1],[4],[4321]
8,25,"[2, 1]","[50, 90]","[1, 1]",[1],[1],[1],[90],[9],[1],[2],[2018]
8,26,"[2, 1]","[70, 80]","[1, 1]",[1],[1],[1],[80],[8],[1],[2],[1897]
8,27,"[3, 4]","[80, 60]","[2, 1]",[1],[1],[3],[80],[8],[1],[3],[2078]
8,28,"[4, 3]","[20, 70]","[2, 1]",[1],[5],[3],[350],[7],[1],[4],[1970]
8,29,"[4, 3]","[0, 50]","[2, 1]",[1],[1],[3],[50],[5],[1],[4],[1924]
8,30,"[3, 4]","[60, 30]","[2, 1]",[1],[5],[3],[300],[6],[1],[3],[2040]
8,31,"[2, 1]","[40, 60]","[1, 1]",[1],[5],[1],[300],[6],[1],[2],[2072]
8,32,"[4, 3]","[50, 50]","[2, 1]",[1],[5],[3],[250],[5],[1],[4],[1980]
8,33,"[4, 3]","[80, 60]","[2, 1]",[1],[1],[3],[60],[6],[1],[3],[1879]
8,34,"[1, 2]","[30, 70]","[1, 1]",[1],[5],[1],[150],[3],[1],[2],[1957]
8,35,"[3, 4]","[50, 70]","[2, 1]",[1],[5],[3],[250],[5],[1],[4],[1970]
8,36,"[1, 2]","[40, 60]","[1, 1]",[1],[5],[1],[200],[4],[1],[2],[1922]
8,37,"[2, 1]","[80, 60]","[1, 1]",[1],[1],[1],[60],[6],[1],[1],[1865]
8,38,"[2, 1]","[80, 80]","[1, 1]",[1],[5],[1],[400],[8],[1],[2],[1890]
8,39,"[1, 2]","[40, 60]","[1, 1]",[1],[5],[1],[200],[4],[1],[2],[1974]
8,40,"[2, 1]","[70, 20]","[1, 1]",[1],[5],[1],[100],[2],[1],[1],[1951]
8,41,"[1, 2]","[50, 70]","[1, 1]",[2],[1],[1],[50],[5],[1],[2],[2826]
8,42,"[3, 4]","[50, 80]","[2, 1]",[2],[1],[3],[50],[5],[1],[4],[1888]
8,43,"[4, 3]","[70, 40]","[2, 1]",[2],[1],[3],[40],[4],[1],[3],[1832]
8,44,"[1, 2]","[0, 70]","[1, 1]",[2],[5],[1],[0],[0],[1],[2],[2032]
8,45,"[4, 3]","[80, 0]","[2, 2]",[2],[5],[4],[400],[8],[2],[3],[1877]
8,46,"[3, 4]","[10, 80]","[2, 2]",[2],[5],[4],[400],[8],[2],[4],[1874]
8,47,"[2, 1]","[70, 10]","[1, 2]",[2],[5],[2],[350],[7],[2],[1],[1978]
8,48,"[4, 3]","[60, 30]","[2, 2]",[2],[5],[4],[300],[6],[2],[3],[2095]
8,49,"[4, 3]","[30, 30]","[2, 2]",[2],[5],[4],[150],[3],[2],[4],[2010]
8,50,"[1, 2]","[10, 40]","[1, 2]",[2],[1],[2],[40],[4],[2],[2],[1885]
8,51,"[1, 2]","[10, 40]","[1, 2]",[2],[5],[2],[200],[4],[2],[2],[1837]
8,52,"[2, 1]","[30, 30]","[1, 2]",[2],[1],[2],[30],[3],[2],[2],[1979]
8,53,"[3, 4]","[30, 10]","[2, 2]",[2],[1],[4],[10],[1],[2],[3],[2050]
8,54,"[3, 4]","[40, 20]","[2, 1]",[2],[1],[3],[40],[4],[1],[3],[1853]
8,55,"[2, 1]","[0, 10]","[1, 1]",[2],[5],[1],[50],[1],[1],[2],[2078]
8,56,"[1, 2]","[0, 50]","[1, 2]",[2],[1],[2],[50],[5],[2],[2],[1822]
8,57,"[2, 1]","[30, 30]","[1, 2]",[2],[5],[2],[150],[3],[2],[2],[1870]
8,58,"[4, 3]","[30, 40]","[2, 2]",[2],[5],[4],[150],[3],[2],[4],[1964]
8,59,"[1, 2]","[20, 20]","[1, 2]",[2],[1],[2],[20],[2],[2],[1],[1969]
8,60,"[1, 2]","[30, 20]","[1, 1]",[2],[1],[1],[30],[3],[1],[1],[1911]
8,61,"[1, 2]","[0, 80]","[1, 1]",[2],[1],[1],[0],[0],[1],[2],[1993]
8,62,"[2, 1]","[70, 0]","[1, 2]",[2],[1],[2],[70],[7],[2],[1],[1943]
8,63,"[4, 3]","[90, 50]","[2, 2]",[2],[5],[4],[450],[9],[2],[3],[2016]
8,64,"[4, 3]","[50, 50]","[2, 2]",[2],[5],[4],[250],[5],[2],[4],[1896]
8,65,"[3, 4]","[20, 40]","[2, 2]",[2],[5],[4],[200],[4],[2],[4],[1885]
8,66,"[3, 4]","[20, 80]","[2, 2]",[2],[5],[4],[400],[8],[2],[4],[1868]
8,67,"[1, 2]","[70, 80]","[1, 2]",[2],[1],[2],[80],[8],[2],[2],[1961]
8,68,"[3, 4]","[40, 80]","[2, 2]",[2],[5],[4],[400],[8],[2],[4],[1787]
8,69,"[4, 3]","[80, 80]","[2, 2]",[2],[5],[4],[400],[8],[2],[4],[2040]
8,70,"[2, 1]","[60, 80]","[1, 2]",[2],[1],[2],[60],[6],[2],[2],[2052]
8,71,"[3, 4]","[90, 50]","[2, 2]",[2],[5],[4],[250],[5],[2],[3],[1866]
8,72,"[4, 3]","[70, 80]","[2, 2]",[2],[5],[4],[350],[7],[2],[4],[2140]
8,73,"[1, 2]","[60, 70]","[1, 2]",[2],[5],[2],[350],[7],[2],[2],[2778]
8,74,"[3, 4]","[70, 70]","[2, 2]",[2],[1],[4],[70],[7],[2],[3],[1870]
8,75,"[2, 1]","[80, 50]","[1, 2]",[2],[1],[2],[80],[8],[2],[1],[1922]
8,76,"[3, 4]","[60, 60]","[2, 2]",[2],[1],[4],[60],[6],[2],[3],[1774]
8,77,"[2, 1]","[80, 90]","[1, 2]",[2],[5],[2],[400],[8],[2],[2],[1894]
8,78,"[4, 3]","[80, 80]","[2, 2]",[2],[5],[4],[400],[8],[2],[4],[2309]
8,79,"[4, 3]","[50, 60]","[2, 2]",[2],[5],[4],[250],[5],[2],[4],[2004]
8,80,"[2, 1]","[80, 90]","[1, 2]",[2],[5],[2],[400],[8],[2],[2],[2212]
9,1,"[1, 2]","[30, 60]","[1, 1]",[1],[1],[1],[30],[3],[1],[2],[3930]
9,2,"[3, 4]","[40, 80]","[2, 2]",[1],[1],[4],[80],[8],[2],[4],[1921]
9,3,"[1, 2]","[50, 80]","[1, 2]",[1],[5],[2],[400],[8],[2],[2],[1933]
9,4,"[4, 3]","[60, 80]","[2, 2]",[1],[5],[4],[300],[6],[2],[4],[2045]
9,5,"[4, 3]","[80, 90]","[2, 2]",[1],[1],[4],[80],[8],[2],[4],[1975]
9,6,"[1, 2]","[80, 90]","[1, 2]",[1],[1],[2],[90],[9],[2],[2],[1928]
9,7,"[2, 1]","[80, 90]","[1, 2]",[1],[5],[2],[400],[8],[2],[2],[2030]
9,8,"[1, 2]","[90, 90]","[1, 2]",[1],[5],[2],[450],[9],[2],[1],[1893]
9,9,"[2, 1]","[70, 40]","[1, 2]",[1],[1],[2],[70],[7],[2],[1],[2226]
9,10,"[4, 3]","[30, 40]","[2, 2]",[1],[5],[4],[150],[3],[2],[4],[1952]
9,11,"[1, 2]","[40, 40]","[1, 1]",[1],[5],[1],[200],[4],[1],[1],[1815]
9,12,"[4, 3]","[60, 20]","[2, 1]",[1],[1],[3],[20],[2],[1],[3],[1905]
9,13,"[2, 1]","[70, 30]","[1, 1]",[1],[5],[1],[150],[3],[1],[1],[1837]
9,14,"[4, 3]","[60, 20]","[2, 1]",[1],[5],[3],[100],[2],[1],[3],[1766]
9,15,"[1, 2]","[10, 40]","[1, 2]",[1],[1],[2],[40],[4],[2],[2],[1719]
9,16,"[1, 2]","[0, 50]","[1, 2]",[1],[5],[2],[250],[5],[2],[2],[1955]
9,17,"[2, 1]","[10, 50]","[1, 2]",[1],[1],[2],[10],[1],[2],[2],[1876]
9,18,"[1, 2]","[50, 20]","[1, 1]",[1],[5],[1],[250],[5],[1],[1],[1913]
9,19,"[2, 1]","[30, 30]","[1, 1]",[1],[1],[1],[30],[3],[1],[2],[1730]
9,20,"[4, 3]","[40, 60]","[2, 1]",[1],[1],[3],[60],[6],[1],[4],[2021]
9,21,"[1, 2]","[30, 30]","[1, 1]",[1],[1],[1],[30],[3],[1],[1],[1896]
9,22,"[1, 2]","[10, 20]","[1, 2]",[1],[1],[2],[20],[2],[2],[2],[1722]
9,23,"[4, 3]","[0, 0]","[2, 2]",[1],[5],[4],[0],[0],[2],[4],[1966]
9,24,"[2, 1]","[10, 40]","[1, 1]",[1],[5],[1],[200],[4],[1],[2],[1779]
9,25,"[2, 1]","[20, 40]","[1, 1]",[1],[5],[1],[200],[4],[1],[2],[1698]
9,26,"[1, 2]","[10, 0]","[1, 1]",[1],[5],[1],[50],[1],[1],[1],[1803]
9,27,"[2, 1]","[10, 20]","[1, 1]",[1],[1],[1],[20],[2],[1],[2],[1673]
9,28,"[4, 3]","[30, 0]","[2, 1]",[1],[1],[3],[0],[0],[1],[3],[1698]
9,29,"[1, 2]","[0, 30]","[1, 2]",[1],[1],[2],[30],[3],[2],[2],[1776]
9,30,"[4, 3]","[20, 0]","[2, 2]",[1],[5],[4],[100],[2],[2],[3],[1944]
9,31,"[3, 4]","[40, 20]","[2, 2]",[1],[1],[4],[20],[2],[2],[3],[1682]
9,32,"[2, 1]","[20, 10]","[1, 2]",[1],[5],[2],[100],[2],[2],[1],[1878]
9,33,"[2, 1]","[20, 10]","[1, 2]",[1],[1],[2],[20],[2],[2],[1],[1963]
9,34,"[3, 4]","[20, 30]","[2, 2]",[1],[1],[4],[30],[3],[2],[4],[1771]
9,35,"[1, 2]","[0, 40]","[1, 2]",[1],[5],[2],[200],[4],[2],[2],[2426]
9,36,"[2, 1]","[70, 10]","[1, 2]",[1],[1],[2],[70],[7],[2],[1],[1782]
9,37,"[2, 1]","[90, 30]","[1, 2]",[1],[1],[2],[90],[9],[2],[1],[1726]
9,38,"[4, 3]","[90, 30]","[2, 2]",[1],[5],[4],[450],[9],[2],[3],[2249]
9,39,"[3, 4]","[20, 90]","[2, 2]",[1],[1],[4],[90],[9],[2],[4],[1722]
9,40,"[2, 1]","[80, 10]","[1, 2]",[1],[5],[2],[400],[8],[2],[1],[2083]
9,41,"[4, 3]","[90, 0]","[2, 2]",[2],[5],[4],[450],[9],[2],[3],[7587]
9,42,"[2, 1]","[70, 10]","[1, 2]",[2],[1],[2],[70],[7],[2],[1],[2244]
9,43,"[2, 1]","[70, 20]","[1, 2]",[2],[1],[2],[70],[7],[2],[1],[1705]
9,44,"[3, 4]","[0, 80]","[2, 2]",[2],[5],[4],[400],[8],[2],[4],[1834]
9,45,"[1, 2]","[10, 80]","[1, 2]",[2],[5],[2],[400],[8],[2],[2],[1825]
9,46,"[1, 2]","[30, 70]","[1, 2]",[2],[5],[2],[350],[7],[2],[2],[1768]
9,47,"[2, 1]","[60, 20]","[1, 2]",[2],[5],[2],[300],[6],[2],[1],[1827]
9,48,"[3, 4]","[20, 80]","[2, 2]",[2],[1],[4],[80],[8],[2],[4],[1898]
9,49,"[2, 1]","[70, 0]","[1, 2]",[2],[1],[2],[70],[7],[2],[1],[8813]
9,50,"[4, 3]","[90, 0]","[2, 2]",[2],[5],[4],[450],[9],[2],[3],[6082]
9,51,"[2, 1]","[80, 0]","[1, 2]",[2],[5],[2],[400],[8],[2],[1],[2649]
9,52,"[1, 2]","[10, 80]","[1, 2]",[2],[1],[2],[80],[8],[2],[2],[2286]
9,53,"[4, 3]","[80, 40]","[2, 2]",[2],[5],[4],[400],[8],[2],[3],[1975]
9,54,"[1, 2]","[30, 50]","[1, 2]",[2],[1],[2],[50],[5],[2],[2],[6609]
9,55,"[4, 3]","[60, 40]","[2, 2]",[2],[1],[4],[60],[6],[2],[3],[1989]
9,56,"[4, 3]","[60, 10]","[2, 2]",[2],[5],[4],[300],[6],[2],[3],[2030]
9,57,"[3, 4]","[50, 60]","[2, 2]",[2],[5],[4],[300],[6],[2],[4],[1766]
9,58,"[3, 4]","[40, 40]","[2, 2]",[2],[1],[4],[40],[4],[2],[3],[1723]
9,59,"[2, 1]","[30, 0]","[1, 1]",[2],[1],[1],[0],[0],[1],[1],[2082]
9,60,"[2, 1]","[10, 10]","[1, 1]",[2],[5],[1],[50],[1],[1],[2],[1728]
9,61,"[1, 2]","[20, 30]","[1, 1]",[2],[1],[1],[20],[2],[1],[2],[1853]
9,62,"[3, 4]","[10, 40]","[2, 1]",[2],[1],[3],[10],[1],[1],[4],[2335]
9,63,"[2, 1]","[40, 20]","[1, 2]",[2],[5],[2],[200],[4],[2],[1],[2250]
9,64,"[4, 3]","[10, 60]","[2, 2]",[2],[5],[4],[50],[1],[2],[4],[2070]
9,65,"[2, 1]","[10, 70]","[1, 1]",[2],[1],[1],[70],[7],[1],[2],[1776]
9,66,"[1, 2]","[60, 20]","[1, 1]",[2],[5],[1],[300],[6],[1],[1],[1800]
9,67,"[4, 3]","[20, 80]","[2, 1]",[2],[1],[3],[80],[8],[1],[4],[2177]
9,68,"[4, 3]","[0, 70]","[2, 1]",[2],[5],[3],[350],[7],[1],[4],[1804]
9,69,"[4, 3]","[10, 80]","[2, 1]",[2],[5],[3],[400],[8],[1],[4],[1970]
9,70,"[2, 1]","[40, 60]","[1, 1]",[2],[1],[1],[60],[6],[1],[2],[1739]
9,71,"[1, 2]","[80, 80]","[1, 1]",[2],[5],[1],[400],[8],[1],[1],[1901]
9,72,"[1, 2]","[90, 70]","[1, 1]",[2],[5],[1],[450],[9],[1],[1],[1791]
9,73,"[3, 4]","[90, 50]","[2, 1]",[2],[1],[3],[90],[9],[1],[3],[2046]
9,74,"[4, 3]","[30, 70]","[2, 1]",[2],[1],[3],[70],[7],[1],[4],[1662]
9,75,"[4, 3]","[20, 90]","[2, 1]",[2],[1],[3],[90],[9],[1],[4],[1697]
9,76,"[3, 4]","[90, 10]","[2, 1]",[2],[5],[3],[450],[9],[1],[3],[1826]
9,77,"[4, 3]","[20, 90]","[2, 1]",[2],[5],[3],[450],[9],[1],[4],[1642]
9,78,"[2, 1]","[40, 80]","[1, 1]",[2],[1],[1],[80],[8],[1],[2],[1751]
9,79,"[4, 3]","[50, 70]","[2, 1]",[2],[1],[3],[70],[7],[1],[4],[1784]
9,80,"[3, 4]","[70, 70]","[2, 1]",[2],[5],[3],[350],[7],[1],[3],[2003]
10,1,"[1, 2]","[10, 50]","[1, 1]",[1],[1],[1],[10],[1],[1],[2],[14940]
10,2,"[1, 2]","[0, 40]","[1, 2]",[1],[1],[2],[40],[4],[2],[2],[2752]
10,3,"[3, 4]","[0, 60]","[2, 2]",[1],[5],[4],[300],[6],[2],[4],[2521]
10,4,"[4, 3]","[70, 20]","[2, 2]",[1],[5],[4],[350],[7],[2],[3],[2673]
10,5,"[4, 3]","[50, 0]","[2, 2]",[1],[5],[4],[250],[5],[2],[3],[2806]
10,6,"[2, 1]","[90, 0]","[1, 2]",[1],[5],[2],[450],[9],[2],[1],[2438]
10,7,"[2, 1]","[50, 20]","[1, 2]",[1],[5],[2],[250],[5],[2],[1],[3569]
10,8,"[2, 1]","[30, 10]","[1, 2]",[1],[5],[2],[150],[3],[2],[1],[4435]
10,9,"[4, 3]","[60, 10]","[2, 1]",[1],[1],[3],[10],[1],[1],[3],[2380]
10,10,"[1, 2]","[10, 30]","[1, 2]",[1],[1],[2],[30],[3],[2],[2],[3329]
10,11,"[3, 4]","[20, 20]","[2, 2]",[1],[5],[4],[100],[2],[2],[3],[2630]
10,12,"[4, 3]","[30, 0]","[2, 1]",[1],[1],[3],[0],[0],[1],[3],[2156]
10,13,"[1, 2]","[20, 30]","[1, 2]",[1],[5],[2],[150],[3],[2],[2],[3062]
10,14,"[2, 1]","[0, 10]","[1, 2]",[1],[5],[2],[0],[0],[2],[2],[2385]
10,15,"[4, 3]","[0, 0]","[2, 1]",[1],[1],[3],[0],[0],[1],[4],[2068]
10,16,"[2, 1]","[10, 10]","[1, 2]",[1],[5],[2],[50],[1],[2],[2],[6182]
10,17,"[1, 2]","[0, 10]","[1, 1]",[1],[5],[1],[0],[0],[1],[2],[3485]
10,18,"[3, 4]","[10, 10]","[2, 2]",[1],[1],[4],[10],[1],[2],[3],[2334]
10,19,"[2, 1]","[20, 20]","[1, 2]",[1],[1],[2],[20],[2],[2],[2],[2996]
10,20,"[3, 4]","[20, 20]","[2, 2]",[1],[1],[4],[20],[2],[2],[3],[2570]
10,21,"[3, 4]","[30, 0]","[2, 2]",[1],[1],[4],[0],[0],[2],[3],[3202]
10,22,"[3, 4]","[50, 20]","[2, 1]",[1],[1],[3],[50],[5],[1],[3],[2051]
10,23,"[4, 3]","[20, 60]","[2, 1]",[1],[1],[3],[60],[6],[1],[4],[1984]
10,24,"[4, 3]","[30, 50]","[2, 1]",[1],[1],[3],[50],[5],[1],[4],[2168]
10,25,"[3, 4]","[70, 40]","[2, 1]",[1],[1],[3],[70],[7],[1],[3],[2289]
10,26,"[2, 1]","[40, 70]","[1, 1]",[1],[5],[1],[350],[7],[1],[2],[2954]
10,27,"[1, 2]","[30, 20]","[1, 1]",[1],[1],[1],[30],[3],[1],[1],[2952]
10,28,"[1, 2]","[50, 20]","[1, 1]",[1],[1],[1],[50],[5],[1],[1],[2484]
10,29,"[3, 4]","[50, 20]","[2, 1]",[1],[5],[3],[250],[5],[1],[3],[2468]
10,30,"[4, 3]","[20, 50]","[2, 1]",[1],[1],[3],[50],[5],[1],[4],[2583]
10,31,"[1, 2]","[60, 10]","[1, 1]",[1],[5],[1],[300],[6],[1],[1],[3232]
10,32,"[3, 4]","[40, 20]","[2, 1]",[1],[5],[3],[200],[4],[1],[3],[2601]
10,33,"[3, 4]","[70, 10]","[2, 1]",[1],[1],[3],[70],[7],[1],[3],[2102]
10,34,"[2, 1]","[10, 90]","[1, 1]",[1],[5],[1],[450],[9],[1],[2],[2310]
10,35,"[4, 3]","[20, 90]","[2, 1]",[1],[1],[3],[90],[9],[1],[4],[2267]
10,36,"[4, 3]","[30, 80]","[2, 1]",[1],[1],[3],[80],[8],[1],[4],[1936]
10,37,"[4, 3]","[20, 70]","[2, 1]",[1],[1],[3],[70],[7],[1],[4],[1967]
10,38,"[2, 1]","[60, 70]","[1, 1]",[1],[1],[1],[70],[7],[1],[2],[2022]
10,39,"[1, 2]","[70, 40]","[1, 1]",[1],[1],[1],[70],[7],[1],[1],[2271]
10,40,"[2, 1]","[40, 90]","[1, 1]",[1],[5],[1],[450],[9],[1],[2],[2974]
10,41,"[3, 4]","[70, 30]","[2, 1]",[2],[1],[3],[70],[7],[1],[3],[7484]
10,42,"[4, 3]","[10, 60]","[2, 1]",[2],[1],[3],[60],[6],[1],[4],[2492]
10,43,"[4, 3]","[20, 80]","[2, 1]",[2],[1],[3],[80],[8],[1],[4],[2071]
10,44,"[2, 1]","[10, 60]","[1, 1]",[2],[5],[1],[300],[6],[1],[2],[2029]
10,45,"[2, 1]","[10, 70]","[1, 1]",[2],[1],[1],[70],[7],[1],[2],[2118]
10,46,"[1, 2]","[80, 20]","[1, 1]",[2],[5],[1],[400],[8],[1],[1],[2785]
10,47,"[3, 4]","[80, 10]","[2, 1]",[2],[5],[3],[400],[8],[1],[3],[2304]
10,48,"[1, 2]","[70, 30]","[1, 1]",[2],[5],[1],[350],[7],[1],[1],[2269]
10,49,"[3, 4]","[50, 10]","[2, 1]",[2],[5],[3],[250],[5],[1],[3],[2512]
10,50,"[2, 1]","[10, 80]","[1, 1]",[2],[1],[1],[80],[8],[1],[2],[2153]
10,51,"[2, 1]","[20, 90]","[1, 1]",[2],[5],[1],[450],[9],[1],[2],[2170]
10,52,"[4, 3]","[30, 80]","[2, 1]",[2],[5],[3],[400],[8],[1],[4],[3096]
10,53,"[4, 3]","[50, 70]","[2, 1]",[2],[1],[3],[70],[7],[1],[4],[2409]
10,54,"[3, 4]","[90, 60]","[2, 1]",[2],[1],[3],[90],[9],[1],[3],[2079]
10,55,"[3, 4]","[50, 50]","[2, 1]",[2],[5],[3],[250],[5],[1],[3],[2211]
10,56,"[3, 4]","[40, 80]","[2, 1]",[2],[5],[3],[200],[4],[1],[4],[2054]
10,57,"[1, 2]","[60, 70]","[1, 1]",[2],[5],[1],[300],[6],[1],[2],[2178]
10,58,"[4, 3]","[70, 90]","[2, 1]",[2],[1],[3],[90],[9],[1],[4],[2079]
10,59,"[3, 4]","[80, 30]","[2, 1]",[2],[1],[3],[80],[8],[1],[3],[2051]
10,60,"[1, 2]","[70, 20]","[1, 1]",[2],[1],[1],[70],[7],[1],[1],[2406]
10,61,"[4, 3]","[30, 70]","[2, 1]",[2],[5],[3],[350],[7],[1],[4],[2044]
10,62,"[2, 1]","[10, 70]","[1, 1]",[2],[5],[1],[350],[7],[1],[2],[2445]
10,63,"[3, 4]","[80, 20]","[2, 1]",[2],[5],[3],[400],[8],[1],[3],[2645]
10,64,"[4, 3]","[50, 90]","[2, 1]",[2],[5],[3],[450],[9],[1],[4],[2130]
10,65,"[2, 1]","[50, 80]","[1, 1]",[2],[5],[1],[400],[8],[1],[2],[2129]
10,66,"[2, 1]","[80, 70]","[1, 1]",[2],[5],[1],[350],[7],[1],[1],[3429]
10,67,"[2, 1]","[60, 40]","[1, 1]",[2],[5],[1],[200],[4],[1],[1],[2022]
10,68,"[1, 2]","[50, 50]","[1, 1]",[2],[5],[1],[250],[5],[1],[1],[4285]
10,69,"[4, 3]","[40, 50]","[2, 2]",[2],[1],[4],[40],[4],[2],[4],[2643]
10,70,"[3, 4]","[40, 60]","[2, 1]",[2],[1],[3],[40],[4],[1],[4],[2351]
10,71,"[4, 3]","[90, 80]","[2, 1]",[2],[5],[3],[400],[8],[1],[3],[2178]
10,72,"[3, 4]","[90, 70]","[2, 1]",[2],[5],[3],[450],[9],[1],[3],[2285]
10,73,"[4, 3]","[80, 70]","[2, 1]",[2],[1],[3],[70],[7],[1],[3],[2201]
10,74,"[4, 3]","[50, 80]","[2, 1]",[2],[5],[3],[400],[8],[1],[4],[2270]
10,75,"[1, 2]","[70, 80]","[1, 1]",[2],[1],[1],[70],[7],[1],[2],[2712]
10,76,"[2, 1]","[70, 70]","[1, 1]",[2],[1],[1],[70],[7],[1],[2],[2654]
10,77,"[2, 1]","[70, 20]","[1, 1]",[2],[5],[1],[100],[2],[1],[1],[2200]
10,78,"[1, 2]","[10, 60]","[1, 2]",[2],[1],[2],[60],[6],[2],[2],[2751]
10,79,"[4, 3]","[70, 20]","[2, 2]",[2],[5],[4],[350],[7],[2],[3],[2271]
10,80,"[4, 3]","[60, 80]","[2, 2]",[2],[1],[4],[60],[6],[2],[4],[3201]
10,1,"[2, 1]","[20, 70]","[1, 1]",[1],[1],[1],[70],[7],[1],[2],[5505]
10,2,"[4, 3]","[20, 90]","[2, 1]",[1],[1],[3],[90],[9],[1],[4],[2054]
10,3,"[2, 1]","[10, 70]","[1, 1]",[1],[1],[1],[70],[7],[1],[2],[2195]
10,4,"[1, 2]","[70, 20]","[1, 1]",[1],[5],[1],[350],[7],[1],[1],[3080]
10,5,"[3, 4]","[80, 0]","[2, 1]",[1],[5],[3],[400],[8],[1],[3],[2418]
10,6,"[3, 4]","[80, 10]","[2, 1]",[1],[5],[3],[400],[8],[1],[3],[1945]
10,7,"[3, 4]","[70, 10]","[2, 1]",[1],[5],[3],[350],[7],[1],[3],[1936]
10,8,"[4, 3]","[30, 40]","[2, 2]",[1],[1],[4],[30],[3],[2],[4],[2753]
10,9,"[2, 1]","[40, 70]","[1, 1]",[1],[1],[1],[70],[7],[1],[2],[2401]
10,10,"[2, 1]","[50, 60]","[1, 1]",[1],[1],[1],[60],[6],[1],[2],[2318]
10,11,"[3, 4]","[60, 60]","[2, 1]",[1],[5],[3],[300],[6],[1],[3],[2285]
10,12,"[4, 3]","[60, 90]","[2, 1]",[1],[5],[3],[450],[9],[1],[4],[1901]
10,13,"[3, 4]","[90, 40]","[2, 1]",[1],[5],[3],[450],[9],[1],[3],[2155]
10,14,"[2, 1]","[60, 80]","[1, 1]",[1],[5],[1],[400],[8],[1],[2],[2235]
10,15,"[2, 1]","[20, 70]","[1, 1]",[1],[1],[1],[70],[7],[1],[2],[2074]
10,16,"[1, 2]","[80, 30]","[1, 1]",[1],[1],[1],[80],[8],[1],[1],[2637]
10,17,"[2, 1]","[50, 90]","[1, 1]",[1],[1],[1],[90],[9],[1],[2],[2318]
10,18,"[3, 4]","[80, 60]","[2, 1]",[1],[1],[3],[80],[8],[1],[3],[2195]
10,19,"[2, 1]","[70, 70]","[1, 1]",[1],[5],[1],[350],[7],[1],[2],[2104]
10,20,"[1, 2]","[50, 80]","[1, 1]",[1],[5],[1],[250],[5],[1],[2],[2989]
10,21,"[2, 1]","[60, 50]","[1, 1]",[1],[5],[1],[250],[5],[1],[1],[2547]
10,22,"[2, 1]","[70, 50]","[1, 1]",[1],[5],[1],[250],[5],[1],[1],[3518]
10,23,"[2, 1]","[60, 60]","[1, 1]",[1],[5],[1],[300],[6],[1],[2],[3396]
10,24,"[4, 3]","[70, 80]","[2, 1]",[1],[5],[3],[400],[8],[1],[4],[2287]
10,25,"[1, 2]","[80, 60]","[1, 1]",[1],[5],[1],[400],[8],[1],[1],[2345]
10,26,"[3, 4]","[60, 70]","[2, 1]",[1],[1],[3],[60],[6],[1],[4],[2304]
10,27,"[2, 1]","[80, 70]","[1, 1]",[1],[5],[1],[350],[7],[1],[1],[3354]
10,28,"[2, 1]","[80, 90]","[1, 1]",[1],[5],[1],[450],[9],[1],[2],[3480]
10,29,"[2, 1]","[60, 90]","[1, 1]",[1],[1],[1],[90],[9],[1],[2],[2288]
10,30,"[1, 2]","[90, 70]","[1, 1]",[1],[5],[1],[450],[9],[1],[1],[3436]
10,31,"[3, 4]","[60, 60]","[2, 1]",[1],[1],[3],[60],[6],[1],[3],[2279]
10,32,"[4, 3]","[70, 70]","[2, 1]",[1],[5],[3],[350],[7],[1],[4],[2817]
10,33,"[3, 4]","[90, 70]","[2, 1]",[1],[5],[3],[450],[9],[1],[3],[2038]
10,34,"[1, 2]","[70, 60]","[1, 1]",[1],[1],[1],[70],[7],[1],[1],[4654]
10,35,"[1, 2]","[50, 60]","[1, 1]",[1],[1],[1],[50],[5],[1],[2],[2234]
10,36,"[4, 3]","[50, 20]","[2, 1]",[1],[5],[3],[100],[2],[1],[3],[2390]
10,37,"[3, 4]","[10, 70]","[2, 2]",[1],[1],[4],[70],[7],[2],[4],[2320]
10,38,"[4, 3]","[80, 30]","[2, 2]",[1],[1],[4],[80],[8],[2],[3],[2195]
10,39,"[1, 2]","[20, 70]","[1, 2]",[1],[1],[2],[70],[7],[2],[2],[2445]
10,40,"[1, 2]","[10, 80]","[1, 2]",[1],[5],[2],[400],[8],[2],[2],[2651]
10,41,"[2, 1]","[80, 30]","[1, 2]",[2],[5],[2],[400],[8],[2],[1],[4200]
10,42,"[2, 1]","[80, 10]","[1, 2]",[2],[5],[2],[400],[8],[2],[1],[2122]
10,43,"[3, 4]","[10, 80]","[2, 2]",[2],[5],[4],[400],[8],[2],[4],[2301]
10,44,"[2, 1]","[70, 40]","[1, 2]",[2],[1],[2],[70],[7],[2],[1],[2555]
10,45,"[4, 3]","[40, 70]","[2, 2]",[2],[5],[4],[200],[4],[2],[4],[2246]
10,46,"[4, 3]","[50, 40]","[2, 1]",[2],[5],[3],[200],[4],[1],[3],[1984]
10,47,"[3, 4]","[50, 50]","[2, 2]",[2],[1],[4],[50],[5],[2],[3],[2482]
10,48,"[4, 3]","[70, 20]","[2, 1]",[2],[1],[3],[20],[2],[1],[3],[2252]
10,49,"[2, 1]","[70, 40]","[1, 2]",[2],[1],[2],[70],[7],[2],[1],[2112]
10,50,"[3, 4]","[40, 50]","[2, 2]",[2],[5],[4],[250],[5],[2],[4],[2645]
10,51,"[3, 4]","[40, 70]","[2, 2]",[2],[1],[4],[70],[7],[2],[4],[2085]
10,52,"[1, 2]","[40, 70]","[1, 2]",[2],[1],[2],[70],[7],[2],[2],[2438]
10,53,"[4, 3]","[50, 50]","[2, 2]",[2],[1],[4],[50],[5],[2],[4],[2238]
10,54,"[1, 2]","[40, 30]","[1, 2]",[2],[1],[2],[30],[3],[2],[1],[2569]
10,55,"[3, 4]","[10, 20]","[2, 1]",[2],[1],[3],[10],[1],[1],[4],[1935]
10,56,"[4, 3]","[10, 30]","[2, 2]",[2],[1],[4],[10],[1],[2],[4],[2120]
10,57,"[4, 3]","[10, 50]","[2, 1]",[2],[5],[3],[250],[5],[1],[4],[2151]
10,58,"[2, 1]","[0, 50]","[1, 1]",[2],[1],[1],[50],[5],[1],[2],[2121]
10,59,"[3, 4]","[60, 10]","[2, 1]",[2],[5],[3],[300],[6],[1],[3],[2271]
10,60,"[1, 2]","[50, 10]","[1, 1]",[2],[5],[1],[250],[5],[1],[1],[2262]
10,61,"[2, 1]","[20, 10]","[1, 1]",[2],[1],[1],[10],[1],[1],[1],[3244]
10,62,"[2, 1]","[60, 30]","[1, 2]",[2],[5],[2],[300],[6],[2],[1],[2891]
10,63,"[2, 1]","[60, 40]","[1, 2]",[2],[5],[2],[300],[6],[2],[1],[2013]
10,64,"[2, 1]","[30, 50]","[1, 2]",[2],[1],[2],[30],[3],[2],[2],[2154]
10,65,"[4, 3]","[30, 70]","[2, 2]",[2],[1],[4],[30],[3],[2],[4],[2261]
10,66,"[1, 2]","[50, 30]","[1, 1]",[2],[5],[1],[250],[5],[1],[1],[5836]
10,67,"[4, 3]","[30, 50]","[2, 1]",[2],[1],[3],[50],[5],[1],[4],[2062]
10,68,"[3, 4]","[70, 30]","[2, 1]",[2],[1],[3],[70],[7],[1],[3],[2012]
10,69,"[2, 1]","[60, 70]","[1, 1]",[2],[5],[1],[350],[7],[1],[2],[2606]
10,70,"[2, 1]","[70, 20]","[1, 1]",[2],[5],[1],[100],[2],[1],[1],[2937]
10,71,"[3, 4]","[10, 70]","[2, 2]",[2],[1],[4],[70],[7],[2],[4],[2167]
10,72,"[3, 4]","[40, 40]","[2, 2]",[2],[1],[4],[40],[4],[2],[3],[1979]
10,73,"[1, 2]","[40, 20]","[1, 1]",[2],[5],[1],[200],[4],[1],[1],[4653]
10,74,"[1, 2]","[60, 30]","[1, 1]",[2],[1],[1],[60],[6],[1],[1],[2370]
10,75,"[2, 1]","[40, 40]","[1, 1]",[2],[1],[1],[40],[4],[1],[2],[2118]
10,76,"[3, 4]","[60, 20]","[2, 2]",[2],[1],[4],[20],[2],[2],[3],[3205]
10,77,"[4, 3]","[50, 50]","[2, 1]",[2],[5],[3],[250],[5],[1],[4],[2055]
10,78,"[3, 4]","[40, 70]","[2, 1]",[2],[5],[3],[200],[4],[1],[4],[2094]
10,79,"[4, 3]","[90, 70]","[2, 1]",[2],[1],[3],[70],[7],[1],[3],[2120]
10,80,"[3, 4]","[80, 80]","[2, 1]",[2],[5],[3],[400],[8],[1],[3],[2135]
11,1,"[4, 3]","[70, 10]","[2, 1]",[1],[1],[3],[10],[1],[1],[3],[12251]
11,2,"[3, 4]","[0, 80]","[2, 2]",[1],[5],[4],[400],[8],[2],[4],[3817]
11,3,"[2, 1]","[90, 10]","[1, 2]",[1],[1],[2],[90],[9],[2],[1],[7718]
11,4,"[2, 1]","[80, 20]","[1, 2]",[1],[1],[2],[80],[8],[2],[1],[1800]
11,5,"[3, 4]","[10, 70]","[2, 2]",[1],[5],[4],[350],[7],[2],[4],[3532]
11,6,"[3, 4]","[10, 50]","[2, 2]",[1],[5],[4],[250],[5],[2],[4],[1717]
11,7,"[2, 1]","[60, 0]","[1, 2]",[1],[5],[2],[300],[6],[2],[1],[4516]
11,8,"[3, 4]","[0, 50]","[2, 2]",[1],[1],[4],[50],[5],[2],[4],[3834]
11,9,"[2, 1]","[40, 0]","[1, 1]",[1],[1],[1],[0],[0],[1],[1],[2617]
11,10,"[3, 4]","[10, 40]","[2, 1]",[1],[1],[3],[10],[1],[1],[4],[2667]
11,11,"[1, 2]","[10, 30]","[1, 2]",[1],[1],[2],[30],[3],[2],[2],[3017]
11,12,"[3, 4]","[10, 20]","[2, 2]",[1],[1],[4],[20],[2],[2],[4],[3283]
11,13,"[3, 4]","[20, 60]","[2, 1]",[1],[5],[3],[100],[2],[1],[4],[2484]
11,14,"[1, 2]","[10, 70]","[1, 1]",[1],[5],[1],[50],[1],[1],[2],[1750]
11,15,"[2, 1]","[80, 20]","[1, 1]",[1],[1],[1],[20],[2],[1],[1],[2600]
11,16,"[1, 2]","[20, 90]","[1, 2]",[1],[5],[2],[450],[9],[2],[2],[3351]
11,17,"[4, 3]","[90, 30]","[2, 2]",[1],[5],[4],[450],[9],[2],[3],[2983]
11,18,"[3, 4]","[0, 70]","[2, 2]",[1],[5],[4],[350],[7],[2],[4],[3134]
11,19,"[4, 3]","[80, 0]","[2, 2]",[1],[1],[4],[80],[8],[2],[3],[2083]
11,20,"[4, 3]","[90, 20]","[2, 1]",[1],[5],[3],[100],[2],[1],[3],[1917]
11,21,"[2, 1]","[80, 20]","[1, 1]",[1],[1],[1],[20],[2],[1],[1],[3634]
11,22,"[1, 2]","[20, 90]","[1, 2]",[1],[5],[2],[450],[9],[2],[2],[3133]
11,23,"[2, 1]","[80, 20]","[1, 2]",[1],[1],[2],[80],[8],[2],[1],[1824]
11,24,"[3, 4]","[30, 70]","[2, 2]",[1],[1],[4],[70],[7],[2],[4],[2217]
11,25,"[1, 2]","[40, 80]","[1, 2]",[1],[5],[2],[400],[8],[2],[2],[3250]
11,26,"[1, 2]","[20, 80]","[1, 2]",[1],[1],[2],[80],[8],[2],[2],[1867]
11,27,"[4, 3]","[80, 30]","[2, 2]",[1],[1],[4],[80],[8],[2],[3],[2217]
11,28,"[1, 2]","[30, 40]","[1, 2]",[1],[1],[2],[40],[4],[2],[2],[3093]
11,29,"[3, 4]","[50, 70]","[2, 1]",[1],[1],[3],[50],[5],[1],[4],[2417]
11,30,"[3, 4]","[70, 50]","[2, 1]",[1],[5],[3],[350],[7],[1],[3],[1727]
11,31,"[2, 1]","[30, 60]","[1, 1]",[1],[5],[1],[300],[6],[1],[2],[3084]
11,32,"[4, 3]","[20, 30]","[2, 1]",[1],[1],[3],[30],[3],[1],[4],[1766]
11,33,"[3, 4]","[50, 20]","[2, 1]",[1],[5],[3],[250],[5],[1],[3],[1802]
11,34,"[4, 3]","[40, 40]","[2, 1]",[1],[1],[3],[40],[4],[1],[4],[1701]
11,35,"[3, 4]","[30, 60]","[2, 1]",[1],[5],[3],[150],[3],[1],[4],[1750]
11,36,"[3, 4]","[10, 60]","[2, 1]",[1],[5],[3],[50],[1],[1],[4],[1715]
11,37,"[3, 4]","[20, 50]","[2, 1]",[1],[1],[3],[20],[2],[1],[4],[2218]
11,38,"[4, 3]","[80, 40]","[2, 2]",[1],[5],[4],[400],[8],[2],[3],[3085]
11,39,"[4, 3]","[70, 50]","[2, 2]",[1],[5],[4],[350],[7],[2],[3],[1800]
11,40,"[4, 3]","[80, 60]","[2, 2]",[1],[5],[4],[400],[8],[2],[3],[1684]
11,41,"[2, 1]","[50, 60]","[1, 1]",[2],[1],[1],[60],[6],[1],[2],[6665]
11,42,"[3, 4]","[60, 30]","[2, 1]",[2],[1],[3],[60],[6],[1],[3],[1761]
11,43,"[2, 1]","[30, 70]","[1, 1]",[2],[1],[1],[70],[7],[1],[2],[2717]
11,44,"[4, 3]","[30, 40]","[2, 2]",[2],[1],[4],[30],[3],[2],[4],[2467]
11,45,"[3, 4]","[70, 50]","[2, 1]",[2],[1],[3],[70],[7],[1],[3],[1701]
11,46,"[1, 2]","[80, 20]","[1, 1]",[2],[1],[1],[80],[8],[1],[1],[2350]
11,47,"[1, 2]","[70, 40]","[1, 1]",[2],[5],[1],[350],[7],[1],[1],[1852]
11,48,"[2, 1]","[40, 80]","[1, 1]",[2],[1],[1],[80],[8],[1],[2],[2233]
11,49,"[4, 3]","[50, 90]","[2, 1]",[2],[1],[3],[90],[9],[1],[4],[1839]
11,50,"[3, 4]","[70, 40]","[2, 1]",[2],[5],[3],[350],[7],[1],[3],[1701]
11,51,"[1, 2]","[30, 70]","[1, 1]",[2],[5],[1],[150],[3],[1],[2],[2467]
11,52,"[1, 2]","[0, 60]","[1, 1]",[2],[1],[1],[0],[0],[1],[2],[1918]
11,53,"[4, 3]","[40, 10]","[2, 2]",[2],[5],[4],[200],[4],[2],[3],[2184]
11,54,"[4, 3]","[30, 10]","[2, 2]",[2],[5],[4],[150],[3],[2],[3],[1834]
11,55,"[3, 4]","[10, 30]","[2, 2]",[2],[5],[4],[150],[3],[2],[4],[2134]
11,56,"[2, 1]","[10, 30]","[1, 1]",[2],[1],[1],[30],[3],[1],[2],[1700]
11,57,"[2, 1]","[10, 50]","[1, 2]",[2],[1],[2],[10],[1],[2],[2],[2416]
11,58,"[4, 3]","[0, 70]","[2, 1]",[2],[5],[3],[350],[7],[1],[4],[2166]
11,59,"[2, 1]","[0, 80]","[1, 1]",[2],[1],[1],[80],[8],[1],[2],[1783]
11,60,"[3, 4]","[80, 30]","[2, 1]",[2],[5],[3],[400],[8],[1],[3],[1934]
11,61,"[4, 3]","[10, 80]","[2, 1]",[2],[5],[3],[400],[8],[1],[4],[1699]
11,62,"[2, 1]","[10, 90]","[1, 2]",[2],[1],[2],[10],[1],[2],[2],[2233]
11,63,"[4, 3]","[40, 80]","[2, 1]",[2],[5],[3],[400],[8],[1],[4],[1684]
11,64,"[2, 1]","[20, 70]","[1, 2]",[2],[1],[2],[20],[2],[2],[2],[2283]
11,65,"[2, 1]","[20, 70]","[1, 1]",[2],[1],[1],[70],[7],[1],[2],[1867]
11,66,"[3, 4]","[60, 0]","[2, 1]",[2],[1],[3],[60],[6],[1],[3],[1651]
11,67,"[2, 1]","[0, 30]","[1, 1]",[2],[5],[1],[150],[3],[1],[2],[1784]
11,68,"[2, 1]","[10, 10]","[1, 1]",[2],[5],[1],[50],[1],[1],[2],[1816]
11,69,"[4, 3]","[30, 20]","[2, 2]",[2],[5],[4],[150],[3],[2],[3],[2075]
11,70,"[4, 3]","[30, 40]","[2, 2]",[2],[5],[4],[150],[3],[2],[4],[1694]
11,71,"[3, 4]","[50, 10]","[2, 1]",[2],[5],[3],[250],[5],[1],[3],[2333]
11,72,"[2, 1]","[20, 60]","[1, 1]",[2],[1],[1],[60],[6],[1],[2],[2120]
11,73,"[4, 3]","[40, 50]","[2, 1]",[2],[1],[3],[50],[5],[1],[4],[1800]
11,74,"[3, 4]","[30, 50]","[2, 1]",[2],[5],[3],[150],[3],[1],[4],[1717]
11,75,"[3, 4]","[20, 10]","[2, 1]",[2],[5],[3],[100],[2],[1],[3],[1767]
11,76,"[4, 3]","[10, 30]","[2, 1]",[2],[1],[3],[30],[3],[1],[4],[1667]
11,77,"[1, 2]","[0, 10]","[1, 1]",[2],[5],[1],[0],[0],[1],[2],[2133]
11,78,"[3, 4]","[0, 10]","[2, 2]",[2],[5],[4],[50],[1],[2],[4],[1967]
11,79,"[3, 4]","[20, 0]","[2, 2]",[2],[5],[4],[0],[0],[2],[3],[2517]
11,80,"[4, 3]","[20, 40]","[2, 1]",[2],[1],[3],[40],[4],[1],[4],[1733]
12,1,"[4, 3]","[40, 80]","[2, 1]",[1],[1],[3],[80],[8],[1],[4],[6351]
12,2,"[2, 1]","[40, 80]","[1, 1]",[1],[5],[1],[400],[8],[1],[2],[2496]
12,3,"[4, 3]","[90, 70]","[2, 1]",[1],[5],[3],[350],[7],[1],[3],[3314]
12,4,"[3, 4]","[80, 90]","[2, 1]",[1],[1],[3],[80],[8],[1],[4],[2565]
12,5,"[4, 3]","[70, 70]","[2, 1]",[1],[5],[3],[350],[7],[1],[4],[2071]
12,6,"[2, 1]","[40, 80]","[1, 1]",[1],[1],[1],[80],[8],[1],[2],[2270]
12,7,"[4, 3]","[30, 60]","[2, 1]",[1],[5],[3],[300],[6],[1],[4],[1987]
12,8,"[3, 4]","[40, 10]","[2, 1]",[1],[1],[3],[40],[4],[1],[3],[2339]
12,9,"[2, 1]","[10, 50]","[1, 1]",[1],[1],[1],[50],[5],[1],[2],[2288]
12,10,"[3, 4]","[40, 0]","[2, 1]",[1],[5],[3],[200],[4],[1],[3],[2097]
12,11,"[3, 4]","[40, 20]","[2, 1]",[1],[1],[3],[40],[4],[1],[3],[2046]
12,12,"[4, 3]","[0, 40]","[2, 1]",[1],[1],[3],[40],[4],[1],[4],[2264]
12,13,"[1, 2]","[60, 10]","[1, 2]",[1],[5],[2],[50],[1],[2],[1],[3672]
12,14,"[1, 2]","[50, 20]","[1, 2]",[1],[1],[2],[20],[2],[2],[1],[4898]
12,15,"[3, 4]","[30, 10]","[2, 1]",[1],[5],[3],[150],[3],[1],[3],[2347]
12,16,"[1, 2]","[20, 10]","[1, 1]",[1],[1],[1],[20],[2],[1],[1],[2638]
12,17,"[2, 1]","[30, 20]","[1, 2]",[1],[1],[2],[30],[3],[2],[1],[2322]
12,18,"[1, 2]","[0, 20]","[1, 1]",[1],[5],[1],[0],[0],[1],[2],[2504]
12,19,"[3, 4]","[0, 10]","[2, 2]",[1],[5],[4],[50],[1],[2],[4],[2647]
12,20,"[1, 2]","[10, 40]","[1, 1]",[1],[5],[1],[50],[1],[1],[2],[2587]
12,21,"[3, 4]","[30, 50]","[2, 2]",[1],[5],[4],[250],[5],[2],[4],[2079]
12,22,"[4, 3]","[70, 50]","[2, 2]",[1],[1],[4],[70],[7],[2],[3],[2305]
12,23,"[4, 3]","[70, 60]","[2, 2]",[1],[1],[4],[70],[7],[2],[3],[1880]
12,24,"[1, 2]","[50, 80]","[1, 2]",[1],[5],[2],[400],[8],[2],[2],[2721]
12,25,"[2, 1]","[70, 40]","[1, 2]",[1],[1],[2],[70],[7],[2],[1],[3204]
12,26,"[3, 4]","[20, 50]","[2, 2]",[1],[1],[4],[50],[5],[2],[4],[3521]
12,27,"[4, 3]","[40, 10]","[2, 2]",[1],[5],[4],[200],[4],[2],[3],[2397]
12,28,"[4, 3]","[70, 0]","[2, 2]",[1],[1],[4],[70],[7],[2],[3],[2263]
12,29,"[4, 3]","[30, 10]","[2, 2]",[1],[1],[4],[30],[3],[2],[3],[1955]
12,30,"[3, 4]","[30, 20]","[2, 2]",[1],[5],[4],[100],[2],[2],[3],[2013]
12,31,"[1, 2]","[0, 30]","[1, 2]",[1],[1],[2],[30],[3],[2],[2],[2237]
12,32,"[2, 1]","[40, 20]","[1, 1]",[1],[5],[1],[100],[2],[1],[1],[2405]
12,33,"[1, 2]","[30, 20]","[1, 2]",[1],[1],[2],[20],[2],[2],[1],[2596]
12,34,"[2, 1]","[20, 30]","[1, 1]",[1],[5],[1],[150],[3],[1],[2],[2014]
12,35,"[4, 3]","[30, 30]","[2, 1]",[1],[5],[3],[150],[3],[1],[4],[2556]
12,36,"[1, 2]","[10, 20]","[1, 1]",[1],[5],[1],[50],[1],[1],[2],[2213]
12,37,"[2, 1]","[30, 0]","[1, 2]",[1],[5],[2],[150],[3],[2],[1],[2180]
12,38,"[2, 1]","[70, 30]","[1, 1]",[1],[1],[1],[30],[3],[1],[1],[2263]
12,39,"[3, 4]","[70, 50]","[2, 2]",[1],[1],[4],[50],[5],[2],[3],[2003]
12,40,"[1, 2]","[60, 90]","[1, 2]",[1],[5],[2],[450],[9],[2],[2],[2623]
12,41,"[2, 1]","[80, 70]","[1, 1]",[2],[1],[1],[70],[7],[1],[1],[4350]
12,42,"[1, 2]","[80, 50]","[1, 1]",[2],[1],[1],[80],[8],[1],[1],[1938]
12,43,"[2, 1]","[30, 70]","[1, 1]",[2],[1],[1],[70],[7],[1],[2],[1713]
12,44,"[1, 2]","[90, 70]","[1, 1]",[2],[1],[1],[90],[9],[1],[1],[1913]
12,45,"[4, 3]","[80, 80]","[2, 1]",[2],[5],[3],[400],[8],[1],[4],[2105]
12,46,"[4, 3]","[90, 70]","[2, 1]",[2],[1],[3],[70],[7],[1],[3],[2439]
12,47,"[2, 1]","[70, 60]","[1, 1]",[2],[1],[1],[60],[6],[1],[1],[1847]
12,48,"[2, 1]","[50, 70]","[1, 1]",[2],[5],[1],[350],[7],[1],[2],[1738]
12,49,"[2, 1]","[80, 60]","[1, 1]",[2],[1],[1],[60],[6],[1],[1],[2005]
12,50,"[4, 3]","[90, 40]","[2, 1]",[2],[1],[3],[40],[4],[1],[3],[2055]
12,51,"[4, 3]","[80, 20]","[2, 1]",[2],[5],[3],[100],[2],[1],[3],[1771]
12,52,"[3, 4]","[0, 50]","[2, 2]",[2],[1],[4],[50],[5],[2],[4],[3296]
12,53,"[2, 1]","[30, 0]","[1, 2]",[2],[5],[2],[150],[3],[2],[1],[2662]
12,54,"[1, 2]","[30, 40]","[1, 2]",[2],[1],[2],[40],[4],[2],[2],[2347]
12,55,"[1, 2]","[20, 30]","[1, 2]",[2],[5],[2],[150],[3],[2],[2],[2555]
12,56,"[3, 4]","[20, 30]","[2, 2]",[2],[5],[4],[150],[3],[2],[4],[2264]
12,57,"[2, 1]","[40, 60]","[1, 1]",[2],[5],[1],[300],[6],[1],[2],[1871]
12,58,"[4, 3]","[50, 40]","[2, 1]",[2],[1],[3],[40],[4],[1],[3],[2104]
12,59,"[2, 1]","[20, 50]","[1, 1]",[2],[5],[1],[250],[5],[1],[2],[1863]
12,60,"[4, 3]","[50, 60]","[2, 1]",[2],[1],[3],[60],[6],[1],[4],[2171]
12,61,"[2, 1]","[40, 60]","[1, 1]",[2],[5],[1],[300],[6],[1],[2],[1795]
12,62,"[1, 2]","[40, 40]","[1, 1]",[2],[5],[1],[200],[4],[1],[1],[2271]
12,63,"[1, 2]","[20, 30]","[1, 1]",[2],[5],[1],[100],[2],[1],[2],[2028]
12,64,"[4, 3]","[30, 10]","[2, 2]",[2],[5],[4],[150],[3],[2],[3],[2205]
12,65,"[3, 4]","[20, 20]","[2, 2]",[2],[5],[4],[100],[2],[2],[3],[2970]
12,66,"[2, 1]","[10, 20]","[1, 1]",[2],[5],[1],[100],[2],[1],[2],[10015]
12,67,"[3, 4]","[40, 10]","[2, 1]",[2],[1],[3],[40],[4],[1],[3],[2179]
12,68,"[3, 4]","[30, 10]","[2, 2]",[2],[1],[4],[10],[1],[2],[3],[2004]
12,69,"[2, 1]","[10, 50]","[1, 1]",[2],[5],[1],[250],[5],[1],[2],[2421]
12,70,"[4, 3]","[0, 50]","[2, 1]",[2],[1],[3],[50],[5],[1],[4],[2146]
12,71,"[2, 1]","[0, 30]","[1, 1]",[2],[1],[1],[30],[3],[1],[2],[1880]
12,72,"[2, 1]","[0, 30]","[1, 1]",[2],[1],[1],[30],[3],[1],[2],[1737]
12,73,"[4, 3]","[10, 10]","[2, 1]",[2],[5],[3],[50],[1],[1],[4],[1962]
12,74,"[4, 3]","[20, 20]","[2, 2]",[2],[5],[4],[100],[2],[2],[4],[2095]
12,75,"[3, 4]","[10, 60]","[2, 2]",[2],[5],[4],[300],[6],[2],[4],[2011]
12,76,"[4, 3]","[30, 10]","[2, 2]",[2],[1],[4],[30],[3],[2],[3],[1903]
12,77,"[1, 2]","[40, 10]","[1, 1]",[2],[5],[1],[200],[4],[1],[1],[1989]
12,78,"[3, 4]","[40, 10]","[2, 2]",[2],[1],[4],[10],[1],[2],[3],[1805]
12,79,"[4, 3]","[10, 20]","[2, 1]",[2],[5],[3],[100],[2],[1],[4],[1963]
12,80,"[1, 2]","[20, 0]","[1, 1]",[2],[1],[1],[20],[2],[1],[1],[2146]
12,1,"[2, 1]","[90, 10]","[1, 1]",[1],[5],[1],[50],[1],[1],[1],[3377]
12,2,"[4, 3]","[70, 40]","[2, 2]",[1],[1],[4],[70],[7],[2],[3],[2521]
12,3,"[2, 1]","[70, 40]","[1, 2]",[1],[5],[2],[350],[7],[2],[1],[2212]
12,4,"[3, 4]","[70, 80]","[2, 2]",[1],[1],[4],[80],[8],[2],[4],[1953]
12,5,"[4, 3]","[50, 70]","[2, 2]",[1],[5],[4],[250],[5],[2],[4],[1921]
12,6,"[3, 4]","[60, 80]","[2, 2]",[1],[5],[4],[400],[8],[2],[4],[2053]
12,7,"[4, 3]","[50, 60]","[2, 2]",[1],[1],[4],[50],[5],[2],[4],[1954]
12,8,"[4, 3]","[60, 70]","[2, 2]",[1],[5],[4],[300],[6],[2],[4],[1830]
12,9,"[3, 4]","[80, 20]","[2, 2]",[1],[5],[4],[100],[2],[2],[3],[1713]
12,10,"[4, 3]","[30, 80]","[2, 2]",[1],[5],[4],[150],[3],[2],[4],[1923]
12,11,"[3, 4]","[60, 20]","[2, 2]",[1],[1],[4],[20],[2],[2],[3],[1763]
12,12,"[4, 3]","[20, 40]","[2, 1]",[1],[5],[3],[200],[4],[1],[4],[2079]
12,13,"[2, 1]","[40, 40]","[1, 1]",[1],[5],[1],[200],[4],[1],[2],[1946]
12,14,"[1, 2]","[30, 30]","[1, 1]",[1],[5],[1],[150],[3],[1],[1],[2039]
12,15,"[4, 3]","[60, 40]","[2, 1]",[1],[1],[3],[40],[4],[1],[3],[2071]
12,16,"[3, 4]","[60, 30]","[2, 1]",[1],[1],[3],[60],[6],[1],[3],[1897]
12,17,"[1, 2]","[20, 50]","[1, 1]",[1],[5],[1],[100],[2],[1],[2],[2104]
12,18,"[1, 2]","[20, 30]","[1, 1]",[1],[1],[1],[20],[2],[1],[2],[2003]
12,19,"[1, 2]","[40, 40]","[1, 2]",[1],[5],[2],[200],[4],[2],[1],[1978]
12,20,"[1, 2]","[10, 60]","[1, 2]",[1],[5],[2],[300],[6],[2],[2],[1804]
12,21,"[3, 4]","[30, 50]","[2, 2]",[1],[1],[4],[50],[5],[2],[4],[2645]
12,22,"[4, 3]","[20, 70]","[2, 2]",[1],[5],[4],[100],[2],[2],[4],[2005]
12,23,"[1, 2]","[70, 20]","[1, 1]",[1],[5],[1],[350],[7],[1],[1],[1996]
12,24,"[2, 1]","[20, 70]","[1, 1]",[1],[5],[1],[350],[7],[1],[2],[2270]
12,25,"[4, 3]","[0, 30]","[2, 1]",[1],[1],[3],[30],[3],[1],[4],[2163]
12,26,"[3, 4]","[30, 0]","[2, 1]",[1],[1],[3],[30],[3],[1],[3],[9064]
12,27,"[4, 3]","[30, 50]","[2, 1]",[1],[1],[3],[50],[5],[1],[4],[3213]
12,28,"[2, 1]","[30, 30]","[1, 1]",[1],[1],[1],[30],[3],[1],[2],[5497]
12,29,"[1, 2]","[50, 20]","[1, 1]",[1],[1],[1],[50],[5],[1],[1],[5446]
12,30,"[3, 4]","[30, 0]","[2, 1]",[1],[1],[3],[30],[3],[1],[3],[4579]
12,31,"[2, 1]","[20, 40]","[1, 1]",[1],[1],[1],[40],[4],[1],[2],[2045]
12,32,"[1, 2]","[10, 20]","[1, 1]",[1],[1],[1],[10],[1],[1],[2],[1894]
12,33,"[1, 2]","[20, 30]","[1, 2]",[1],[1],[2],[30],[3],[2],[2],[1745]
12,34,"[4, 3]","[80, 10]","[2, 2]",[1],[5],[4],[400],[8],[2],[3],[1816]
12,35,"[4, 3]","[80, 10]","[2, 2]",[1],[1],[4],[80],[8],[2],[3],[1870]
12,36,"[3, 4]","[10, 80]","[2, 2]",[1],[5],[4],[400],[8],[2],[4],[1920]
12,37,"[3, 4]","[30, 90]","[2, 2]",[1],[1],[4],[90],[9],[2],[4],[1922]
12,38,"[3, 4]","[10, 90]","[2, 2]",[1],[1],[4],[90],[9],[2],[4],[1804]
12,39,"[2, 1]","[50, 40]","[1, 2]",[1],[1],[2],[50],[5],[2],[1],[2229]
12,40,"[2, 1]","[50, 40]","[1, 2]",[1],[1],[2],[50],[5],[2],[1],[2705]
12,41,"[1, 2]","[30, 70]","[1, 1]",[2],[5],[1],[150],[3],[1],[2],[2799]
12,42,"[4, 3]","[80, 30]","[2, 2]",[2],[5],[4],[400],[8],[2],[3],[2486]
12,43,"[3, 4]","[30, 80]","[2, 2]",[2],[5],[4],[400],[8],[2],[4],[1970]
12,44,"[2, 1]","[80, 10]","[1, 2]",[2],[5],[2],[400],[8],[2],[1],[2420]
12,45,"[3, 4]","[20, 60]","[2, 2]",[2],[1],[4],[60],[6],[2],[4],[2105]
12,46,"[1, 2]","[0, 30]","[1, 2]",[2],[5],[2],[150],[3],[2],[2],[5855]
12,47,"[1, 2]","[80, 30]","[1, 2]",[2],[5],[2],[150],[3],[2],[1],[1962]
12,48,"[1, 2]","[70, 40]","[1, 2]",[2],[5],[2],[200],[4],[2],[1],[1762]
12,49,"[4, 3]","[40, 70]","[2, 2]",[2],[5],[4],[200],[4],[2],[4],[2095]
12,50,"[1, 2]","[50, 40]","[1, 2]",[2],[5],[2],[200],[4],[2],[1],[1519]
12,51,"[1, 2]","[30, 40]","[1, 1]",[2],[5],[1],[150],[3],[1],[2],[1895]
12,52,"[4, 3]","[30, 20]","[2, 2]",[2],[5],[4],[150],[3],[2],[3],[1921]
12,53,"[1, 2]","[10, 50]","[1, 1]",[2],[1],[1],[10],[1],[1],[2],[1879]
12,54,"[2, 1]","[40, 20]","[1, 2]",[2],[1],[2],[40],[4],[2],[1],[2779]
12,55,"[4, 3]","[30, 30]","[2, 2]",[2],[5],[4],[150],[3],[2],[4],[1945]
12,56,"[4, 3]","[20, 30]","[2, 2]",[2],[1],[4],[20],[2],[2],[4],[1913]
12,57,"[2, 1]","[10, 30]","[1, 1]",[2],[5],[1],[150],[3],[1],[2],[2362]
12,58,"[2, 1]","[10, 10]","[1, 1]",[2],[1],[1],[10],[1],[1],[2],[1895]
12,59,"[2, 1]","[30, 10]","[1, 2]",[2],[1],[2],[30],[3],[2],[1],[2203]
12,60,"[3, 4]","[10, 10]","[2, 2]",[2],[1],[4],[10],[1],[2],[3],[2154]
12,61,"[1, 2]","[10, 10]","[1, 1]",[2],[5],[1],[50],[1],[1],[1],[1930]
12,62,"[3, 4]","[30, 20]","[2, 1]",[2],[5],[3],[150],[3],[1],[3],[2078]
12,63,"[1, 2]","[60, 0]","[1, 1]",[2],[1],[1],[60],[6],[1],[1],[2153]
12,64,"[4, 3]","[20, 60]","[2, 1]",[2],[1],[3],[60],[6],[1],[4],[1813]
12,65,"[3, 4]","[80, 10]","[2, 1]",[2],[5],[3],[400],[8],[1],[3],[1887]
12,66,"[3, 4]","[90, 20]","[2, 1]",[2],[1],[3],[90],[9],[1],[3],[1836]
12,67,"[3, 4]","[80, 40]","[2, 1]",[2],[5],[3],[400],[8],[1],[3],[1954]
12,68,"[3, 4]","[80, 40]","[2, 1]",[2],[1],[3],[80],[8],[1],[3],[1729]
12,69,"[4, 3]","[10, 60]","[2, 1]",[2],[5],[3],[300],[6],[1],[4],[1913]
12,70,"[1, 2]","[80, 0]","[1, 1]",[2],[1],[1],[80],[8],[1],[1],[2063]
12,71,"[2, 1]","[10, 30]","[1, 1]",[2],[1],[1],[30],[3],[1],[2],[1955]
12,72,"[1, 2]","[20, 0]","[1, 1]",[2],[1],[1],[20],[2],[1],[1],[1703]
12,73,"[4, 3]","[0, 10]","[2, 1]",[2],[5],[3],[50],[1],[1],[4],[1970]
12,74,"[1, 2]","[30, 40]","[1, 2]",[2],[5],[2],[200],[4],[2],[2],[1879]
12,75,"[2, 1]","[40, 0]","[1, 2]",[2],[1],[2],[40],[4],[2],[1],[2137]
12,76,"[3, 4]","[0, 10]","[2, 2]",[2],[1],[4],[10],[1],[2],[4],[1836]
12,77,"[2, 1]","[0, 20]","[1, 1]",[2],[1],[1],[20],[2],[1],[2],[1687]
12,78,"[2, 1]","[40, 20]","[1, 2]",[2],[5],[2],[200],[4],[2],[1],[1912]
12,79,"[2, 1]","[80, 30]","[1, 2]",[2],[1],[2],[80],[8],[2],[1],[1837]
12,80,"[3, 4]","[0, 80]","[2, 2]",[2],[5],[4],[400],[8],[2],[4],[1911]
13,1,"[3, 4]","[20, 60]","[2, 1]",[1],[5],[3],[100],[2],[1],[4],[4348]
13,2,"[2, 1]","[70, 10]","[1, 2]",[1],[5],[2],[350],[7],[2],[1],[1978]
13,3,"[2, 1]","[60, 20]","[1, 2]",[1],[1],[2],[60],[6],[2],[1],[2195]
13,4,"[4, 3]","[40, 30]","[2, 1]",[1],[5],[3],[150],[3],[1],[3],[2186]
13,5,"[2, 1]","[40, 30]","[1, 2]",[1],[1],[2],[40],[4],[2],[1],[2277]
13,6,"[4, 3]","[50, 60]","[2, 1]",[1],[1],[3],[60],[6],[1],[4],[1837]
13,7,"[1, 2]","[60, 20]","[1, 2]",[1],[1],[2],[20],[2],[2],[1],[2760]
13,8,"[1, 2]","[30, 30]","[1, 2]",[1],[1],[2],[30],[3],[2],[1],[2794]
13,9,"[2, 1]","[30, 20]","[1, 1]",[1],[5],[1],[100],[2],[1],[1],[2645]
13,10,"[4, 3]","[30, 0]","[2, 1]",[1],[1],[3],[0],[0],[1],[3],[2602]
13,11,"[1, 2]","[0, 60]","[1, 1]",[1],[5],[1],[0],[0],[1],[2],[2703]
13,12,"[1, 2]","[40, 80]","[1, 2]",[1],[5],[2],[400],[8],[2],[2],[2303]
13,13,"[4, 3]","[60, 60]","[2, 2]",[1],[5],[4],[300],[6],[2],[4],[3927]
13,14,"[4, 3]","[40, 90]","[2, 2]",[1],[5],[4],[200],[4],[2],[4],[2928]
13,15,"[3, 4]","[60, 80]","[2, 2]",[1],[1],[4],[80],[8],[2],[4],[2878]
13,16,"[2, 1]","[70, 70]","[1, 1]",[1],[1],[1],[70],[7],[1],[2],[3902]
13,17,"[2, 1]","[70, 70]","[1, 1]",[1],[5],[1],[350],[7],[1],[2],[3202]
13,18,"[3, 4]","[30, 60]","[2, 2]",[1],[1],[4],[60],[6],[2],[4],[2586]
13,19,"[1, 2]","[40, 60]","[1, 1]",[1],[5],[1],[200],[4],[1],[2],[2778]
13,20,"[1, 2]","[10, 50]","[1, 1]",[1],[5],[1],[50],[1],[1],[2],[2385]
13,21,"[4, 3]","[50, 10]","[2, 2]",[1],[1],[4],[50],[5],[2],[3],[2761]
13,22,"[3, 4]","[20, 60]","[2, 2]",[1],[5],[4],[300],[6],[2],[4],[2454]
13,23,"[1, 2]","[50, 30]","[1, 1]",[1],[5],[1],[250],[5],[1],[1],[1937]
13,24,"[4, 3]","[60, 60]","[2, 2]",[1],[5],[4],[300],[6],[2],[4],[2295]
13,25,"[1, 2]","[70, 70]","[1, 1]",[1],[5],[1],[350],[7],[1],[1],[1912]
13,26,"[3, 4]","[60, 70]","[2, 2]",[1],[5],[4],[350],[7],[2],[4],[1887]
13,27,"[2, 1]","[70, 40]","[1, 1]",[1],[5],[1],[200],[4],[1],[1],[2128]
13,28,"[1, 2]","[30, 60]","[1, 1]",[1],[5],[1],[150],[3],[1],[2],[1971]
13,29,"[4, 3]","[60, 60]","[2, 2]",[1],[5],[4],[300],[6],[2],[4],[1886]
13,30,"[1, 2]","[70, 70]","[1, 1]",[1],[1],[1],[70],[7],[1],[1],[2229]
13,31,"[1, 2]","[50, 30]","[1, 1]",[1],[1],[1],[50],[5],[1],[1],[1920]
13,32,"[3, 4]","[20, 40]","[2, 2]",[1],[5],[4],[200],[4],[2],[4],[1827]
13,33,"[1, 2]","[10, 60]","[1, 1]",[1],[5],[1],[50],[1],[1],[2],[1812]
13,34,"[2, 1]","[30, 0]","[1, 1]",[1],[1],[1],[0],[0],[1],[1],[2002]
13,35,"[4, 3]","[50, 0]","[2, 2]",[1],[1],[4],[50],[5],[2],[3],[2062]
13,36,"[1, 2]","[10, 50]","[1, 2]",[1],[1],[2],[50],[5],[2],[2],[2395]
13,37,"[1, 2]","[0, 80]","[1, 2]",[1],[1],[2],[80],[8],[2],[2],[3236]
13,38,"[2, 1]","[70, 20]","[1, 2]",[1],[1],[2],[70],[7],[2],[1],[2353]
13,39,"[2, 1]","[50, 10]","[1, 2]",[1],[1],[2],[50],[5],[2],[1],[3012]
13,40,"[2, 1]","[30, 20]","[1, 2]",[1],[1],[2],[30],[3],[2],[1],[4594]
13,41,"[1, 2]","[10, 30]","[1, 1]",[2],[1],[1],[10],[1],[1],[2],[9382]
13,42,"[3, 4]","[0, 20]","[2, 2]",[2],[5],[4],[100],[2],[2],[4],[2286]
13,43,"[4, 3]","[10, 0]","[2, 2]",[2],[1],[4],[10],[1],[2],[3],[1812]
13,44,"[1, 2]","[30, 20]","[1, 1]",[2],[5],[1],[150],[3],[1],[1],[1861]
13,45,"[2, 1]","[40, 10]","[1, 1]",[2],[5],[1],[50],[1],[1],[1],[1920]
13,46,"[3, 4]","[0, 30]","[2, 2]",[2],[5],[4],[150],[3],[2],[4],[2220]
13,47,"[3, 4]","[30, 40]","[2, 2]",[2],[5],[4],[200],[4],[2],[4],[1695]
13,48,"[4, 3]","[20, 20]","[2, 2]",[2],[1],[4],[20],[2],[2],[4],[1869]
13,49,"[4, 3]","[30, 10]","[2, 2]",[2],[5],[4],[150],[3],[2],[3],[1978]
13,50,"[2, 1]","[30, 30]","[1, 1]",[2],[5],[1],[150],[3],[1],[2],[2479]
13,51,"[3, 4]","[20, 40]","[2, 2]",[2],[1],[4],[40],[4],[2],[4],[2551]
13,52,"[2, 1]","[30, 30]","[1, 1]",[2],[1],[1],[30],[3],[1],[2],[2128]
13,53,"[1, 2]","[60, 20]","[1, 1]",[2],[1],[1],[60],[6],[1],[1],[2144]
13,54,"[1, 2]","[80, 40]","[1, 1]",[2],[5],[1],[400],[8],[1],[1],[1754]
13,55,"[3, 4]","[80, 40]","[2, 2]",[2],[1],[4],[40],[4],[2],[3],[1962]
13,56,"[2, 1]","[0, 80]","[1, 1]",[2],[1],[1],[80],[8],[1],[2],[1770]
13,57,"[4, 3]","[0, 80]","[2, 2]",[2],[1],[4],[0],[0],[2],[4],[1944]
13,58,"[4, 3]","[20, 90]","[2, 1]",[2],[5],[3],[450],[9],[1],[4],[1829]
13,59,"[2, 1]","[30, 60]","[1, 2]",[2],[1],[2],[30],[3],[2],[2],[3062]
13,60,"[3, 4]","[70, 50]","[2, 1]",[2],[5],[3],[350],[7],[1],[3],[1954]
13,61,"[4, 3]","[80, 60]","[2, 1]",[2],[5],[3],[300],[6],[1],[3],[2070]
13,62,"[3, 4]","[50, 50]","[2, 1]",[2],[5],[3],[250],[5],[1],[3],[2103]
13,63,"[2, 1]","[50, 50]","[1, 2]",[2],[5],[2],[250],[5],[2],[2],[2328]
13,64,"[1, 2]","[60, 50]","[1, 2]",[2],[1],[2],[50],[5],[2],[1],[1919]
13,65,"[3, 4]","[40, 20]","[2, 1]",[2],[1],[3],[40],[4],[1],[3],[1828]
13,66,"[4, 3]","[10, 30]","[2, 1]",[2],[1],[3],[30],[3],[1],[4],[2054]
13,67,"[1, 2]","[40, 10]","[1, 2]",[2],[1],[2],[10],[1],[2],[1],[1979]
13,68,"[4, 3]","[20, 0]","[2, 1]",[2],[5],[3],[0],[0],[1],[3],[1736]
13,69,"[2, 1]","[50, 20]","[1, 2]",[2],[1],[2],[50],[5],[2],[1],[2027]
13,70,"[3, 4]","[20, 50]","[2, 1]",[2],[5],[3],[100],[2],[1],[4],[1895]
13,71,"[2, 1]","[60, 0]","[1, 2]",[2],[1],[2],[60],[6],[2],[1],[1794]
13,72,"[4, 3]","[60, 0]","[2, 1]",[2],[5],[3],[0],[0],[1],[3],[1709]
13,73,"[3, 4]","[10, 70]","[2, 1]",[2],[1],[3],[10],[1],[1],[4],[1754]
13,74,"[1, 2]","[40, 70]","[1, 2]",[2],[1],[2],[70],[7],[2],[2],[1895]
13,75,"[2, 1]","[70, 60]","[1, 2]",[2],[5],[2],[350],[7],[2],[1],[1769]
13,76,"[2, 1]","[60, 70]","[1, 2]",[2],[5],[2],[300],[6],[2],[2],[1761]
13,77,"[3, 4]","[70, 50]","[2, 1]",[2],[1],[3],[70],[7],[1],[3],[1771]
13,78,"[3, 4]","[90, 60]","[2, 1]",[2],[1],[3],[90],[9],[1],[3],[1795]
13,79,"[3, 4]","[60, 60]","[2, 1]",[2],[1],[3],[60],[6],[1],[3],[1920]
13,80,"[4, 3]","[70, 60]","[2, 1]",[2],[5],[3],[300],[6],[1],[3],[1870]
14,1,"[1, 2]","[60, 40]","[1, 1]",[1],[1],[1],[60],[6],[1],[1],[14416]
14,2,"[2, 1]","[30, 10]","[1, 1]",[1],[1],[1],[10],[1],[1],[1],[3377]
14,3,"[3, 4]","[10, 10]","[2, 2]",[1],[1],[4],[10],[1],[2],[3],[2995]
14,4,"[3, 4]","[40, 10]","[2, 1]",[1],[5],[3],[200],[4],[1],[3],[2660]
14,5,"[2, 1]","[0, 50]","[1, 2]",[1],[1],[2],[0],[0],[2],[2],[5176]
14,6,"[4, 3]","[50, 60]","[2, 1]",[1],[5],[3],[300],[6],[1],[4],[4155]
14,7,"[1, 2]","[80, 60]","[1, 1]",[1],[1],[1],[80],[8],[1],[1],[2928]
14,8,"[4, 3]","[80, 70]","[2, 1]",[1],[5],[3],[350],[7],[1],[3],[1855]
14,9,"[2, 1]","[50, 90]","[1, 1]",[1],[1],[1],[90],[9],[1],[2],[2125]
14,10,"[2, 1]","[60, 80]","[1, 1]",[1],[5],[1],[400],[8],[1],[2],[2011]
14,11,"[1, 2]","[70, 60]","[1, 1]",[1],[1],[1],[70],[7],[1],[1],[1794]
14,12,"[2, 1]","[60, 70]","[1, 1]",[1],[5],[1],[350],[7],[1],[2],[2424]
14,13,"[4, 3]","[70, 60]","[2, 1]",[1],[1],[3],[60],[6],[1],[3],[1826]
14,14,"[2, 1]","[70, 80]","[1, 1]",[1],[5],[1],[400],[8],[1],[2],[2027]
14,15,"[1, 2]","[80, 90]","[1, 1]",[1],[1],[1],[80],[8],[1],[2],[2594]
14,16,"[2, 1]","[90, 70]","[1, 1]",[1],[5],[1],[350],[7],[1],[1],[2156]
14,17,"[2, 1]","[50, 80]","[1, 1]",[1],[5],[1],[400],[8],[1],[2],[1928]
14,18,"[4, 3]","[40, 70]","[2, 1]",[1],[1],[3],[70],[7],[1],[4],[1844]
14,19,"[3, 4]","[40, 40]","[2, 2]",[1],[1],[4],[40],[4],[2],[3],[1742]
14,20,"[4, 3]","[20, 20]","[2, 1]",[1],[5],[3],[100],[2],[1],[4],[1721]
14,21,"[1, 2]","[40, 20]","[1, 2]",[1],[1],[2],[20],[2],[2],[1],[1804]
14,22,"[4, 3]","[30, 60]","[2, 2]",[1],[1],[4],[30],[3],[2],[4],[1843]
14,23,"[1, 2]","[80, 40]","[1, 1]",[1],[1],[1],[80],[8],[1],[1],[1876]
14,24,"[4, 3]","[60, 90]","[2, 1]",[1],[5],[3],[450],[9],[1],[4],[1643]
14,25,"[4, 3]","[40, 70]","[2, 1]",[1],[5],[3],[350],[7],[1],[4],[2009]
14,26,"[4, 3]","[60, 90]","[2, 1]",[1],[5],[3],[450],[9],[1],[4],[1741]
14,27,"[4, 3]","[60, 70]","[2, 1]",[1],[1],[3],[70],[7],[1],[4],[1927]
14,28,"[2, 1]","[70, 70]","[1, 1]",[1],[5],[1],[350],[7],[1],[2],[1759]
14,29,"[1, 2]","[80, 40]","[1, 1]",[1],[5],[1],[400],[8],[1],[1],[2127]
14,30,"[4, 3]","[40, 80]","[2, 1]",[1],[5],[3],[400],[8],[1],[4],[1825]
14,31,"[3, 4]","[80, 50]","[2, 1]",[1],[5],[3],[400],[8],[1],[3],[1875]
14,32,"[3, 4]","[80, 40]","[2, 1]",[1],[5],[3],[400],[8],[1],[3],[1709]
14,33,"[3, 4]","[60, 30]","[2, 1]",[1],[5],[3],[300],[6],[1],[3],[1876]
14,34,"[1, 2]","[50, 50]","[1, 1]",[1],[1],[1],[50],[5],[1],[1],[3226]
14,35,"[4, 3]","[40, 80]","[2, 1]",[1],[5],[3],[400],[8],[1],[4],[1993]
14,36,"[1, 2]","[80, 50]","[1, 1]",[1],[5],[1],[400],[8],[1],[1],[1806]
14,37,"[2, 1]","[70, 80]","[1, 1]",[1],[1],[1],[80],[8],[1],[2],[1893]
14,38,"[3, 4]","[90, 70]","[2, 1]",[1],[1],[3],[90],[9],[1],[3],[1754]
14,39,"[2, 1]","[50, 60]","[1, 1]",[1],[5],[1],[300],[6],[1],[2],[2008]
14,40,"[2, 1]","[70, 90]","[1, 1]",[1],[5],[1],[450],[9],[1],[2],[1873]
14,41,"[2, 1]","[80, 80]","[1, 1]",[2],[5],[1],[400],[8],[1],[2],[5899]
14,42,"[2, 1]","[80, 90]","[1, 1]",[2],[5],[1],[450],[9],[1],[2],[1657]
14,43,"[4, 3]","[70, 80]","[2, 1]",[2],[1],[3],[80],[8],[1],[4],[1705]
14,44,"[3, 4]","[80, 40]","[2, 1]",[2],[1],[3],[80],[8],[1],[3],[4371]
14,45,"[1, 2]","[70, 70]","[1, 1]",[2],[1],[1],[70],[7],[1],[1],[1925]
14,46,"[2, 1]","[70, 70]","[1, 1]",[2],[1],[1],[70],[7],[1],[2],[1794]
14,47,"[3, 4]","[80, 70]","[2, 1]",[2],[5],[3],[400],[8],[1],[3],[1938]
14,48,"[4, 3]","[40, 60]","[2, 1]",[2],[5],[3],[300],[6],[1],[4],[1877]
14,49,"[1, 2]","[70, 60]","[1, 1]",[2],[5],[1],[350],[7],[1],[1],[2062]
14,50,"[3, 4]","[60, 40]","[2, 1]",[2],[1],[3],[60],[6],[1],[3],[1845]
14,51,"[4, 3]","[30, 60]","[2, 2]",[2],[1],[4],[30],[3],[2],[4],[2160]
14,52,"[2, 1]","[30, 70]","[1, 1]",[2],[5],[1],[350],[7],[1],[2],[2041]
14,53,"[1, 2]","[0, 30]","[1, 1]",[2],[5],[1],[0],[0],[1],[2],[1900]
14,54,"[4, 3]","[10, 20]","[2, 2]",[2],[5],[4],[50],[1],[2],[4],[1944]
14,55,"[3, 4]","[20, 0]","[2, 2]",[2],[1],[4],[0],[0],[2],[3],[2056]
14,56,"[2, 1]","[0, 10]","[1, 1]",[2],[5],[1],[50],[1],[1],[2],[1759]
