userID,trial,stimuli,rews,s,block,stake,choice,points_real,points,planet,theor_best_choice,RT
1,1,"[1, 2]","[40, 50]","[1, 2]",1,5,2,250,5,2,2,4961
1,2,"[4, 3]","[40, 50]","[2, 2]",1,5,4,200,4,2,4,2056
1,3,"[2, 1]","[30, 70]","[1, 1]",1,1,1,70,7,1,2,1930
1,4,"[3, 4]","[70, 70]","[2, 1]",1,5,3,350,7,1,3,2433
1,5,"[3, 4]","[80, 40]","[2, 1]",1,1,3,80,8,1,3,1852
1,6,"[1, 2]","[80, 50]","[1, 1]",1,1,1,80,8,1,1,2016
1,7,"[2, 1]","[40, 90]","[1, 1]",1,1,1,90,9,1,2,1991
1,8,"[2, 1]","[10, 60]","[1, 1]",1,1,1,60,6,1,2,3077
1,9,"[4, 3]","[0, 40]","[2, 1]",1,5,3,200,4,1,4,1826
1,10,"[2, 1]","[20, 20]","[1, 2]",1,5,2,100,2,2,2,1819
1,11,"[4, 3]","[20, 20]","[2, 1]",1,1,3,20,2,1,4,1703
1,12,"[2, 1]","[30, 0]","[1, 2]",1,5,2,150,3,2,1,2137
1,13,"[3, 4]","[50, 20]","[2, 2]",1,1,4,20,2,2,3,2065
1,14,"[1, 2]","[60, 60]","[1, 1]",1,5,1,300,6,1,1,2510
1,15,"[3, 4]","[50, 80]","[2, 1]",1,5,3,250,5,1,4,2207
1,16,"[1, 2]","[90, 70]","[1, 1]",1,1,1,90,9,1,1,2724
1,17,"[1, 2]","[80, 60]","[1, 1]",1,5,1,400,8,1,1,2207
1,18,"[3, 4]","[80, 80]","[2, 1]",1,1,3,80,8,1,3,2260
1,19,"[3, 4]","[90, 90]","[2, 1]",1,5,3,450,9,1,3,1852
1,20,"[3, 4]","[80, 80]","[2, 1]",1,5,3,400,8,1,3,1664
1,21,"[4, 3]","[70, 20]","[2, 1]",1,5,3,100,2,1,3,3487
1,22,"[2, 1]","[50, 10]","[1, 2]",1,5,2,250,5,2,1,5105
1,23,"[3, 4]","[10, 40]","[2, 1]",1,1,3,10,1,1,4,2350
1,24,"[4, 3]","[40, 10]","[2, 1]",1,5,3,50,1,1,3,2041
1,25,"[4, 3]","[20, 10]","[2, 2]",1,1,4,20,2,2,3,1884
1,26,"[4, 3]","[40, 20]","[2, 2]",1,5,4,200,4,2,3,1708
1,27,"[3, 4]","[20, 60]","[2, 2]",1,1,4,60,6,2,4,1672
1,28,"[2, 1]","[70, 20]","[1, 2]",1,1,2,70,7,2,1,1993
1,29,"[2, 1]","[80, 10]","[1, 2]",1,1,2,80,8,2,1,1741
1,30,"[3, 4]","[30, 80]","[2, 2]",1,5,4,400,8,2,4,2107
1,31,"[1, 2]","[30, 80]","[1, 2]",1,1,2,80,8,2,2,1686
1,32,"[4, 3]","[80, 30]","[2, 2]",1,5,4,400,8,2,3,2061
1,33,"[1, 2]","[20, 50]","[1, 2]",1,1,2,50,5,2,2,1981
1,34,"[3, 4]","[40, 40]","[2, 2]",1,5,4,200,4,2,3,1826
1,35,"[4, 3]","[40, 40]","[2, 2]",1,1,4,40,4,2,4,2155
1,36,"[1, 2]","[50, 70]","[1, 1]",1,1,1,50,5,1,2,2242
1,37,"[1, 2]","[10, 80]","[1, 2]",1,5,2,400,8,2,2,2662
1,38,"[1, 2]","[0, 50]","[1, 2]",1,1,2,50,5,2,2,1663
1,39,"[2, 1]","[50, 10]","[1, 2]",1,1,2,50,5,2,1,1810
1,40,"[3, 4]","[50, 20]","[2, 1]",1,5,3,250,5,1,3,2208
1,41,"[4, 3]","[20, 90]","[2, 1]",2,5,3,450,9,1,4,3578
1,42,"[3, 4]","[70, 10]","[2, 1]",2,5,3,350,7,1,3,1664
1,43,"[1, 2]","[50, 20]","[1, 1]",2,1,1,50,5,1,1,2040
1,44,"[2, 1]","[40, 70]","[1, 1]",2,5,1,350,7,1,2,3694
1,45,"[4, 3]","[60, 70]","[2, 2]",2,5,4,300,6,2,4,1632
1,46,"[1, 2]","[70, 90]","[1, 2]",2,5,2,450,9,2,2,2310
1,47,"[2, 1]","[90, 70]","[1, 2]",2,1,2,90,9,2,1,1697
1,48,"[4, 3]","[40, 40]","[2, 2]",2,5,4,200,4,2,4,3695
1,49,"[3, 4]","[50, 30]","[2, 1]",2,1,3,50,5,1,3,2570
1,50,"[1, 2]","[50, 20]","[1, 1]",2,5,1,250,5,1,1,1930
1,51,"[2, 1]","[0, 40]","[1, 2]",2,5,2,0,0,2,2,2381
1,52,"[4, 3]","[30, 10]","[2, 1]",2,1,3,10,1,1,3,1798
1,53,"[1, 2]","[30, 30]","[1, 1]",2,1,1,30,3,1,1,2796
1,54,"[2, 1]","[50, 20]","[1, 2]",2,1,2,50,5,2,1,2335
1,55,"[1, 2]","[20, 10]","[1, 1]",2,1,1,20,2,1,1,1557
1,56,"[1, 2]","[0, 10]","[1, 2]",2,1,2,10,1,2,2,1694
1,57,"[3, 4]","[30, 10]","[2, 2]",2,5,4,50,1,2,3,1911
1,58,"[3, 4]","[0, 20]","[2, 1]",2,5,3,0,0,1,4,1783
1,59,"[3, 4]","[10, 30]","[2, 2]",2,5,4,150,3,2,4,1844
1,60,"[3, 4]","[40, 20]","[2, 2]",2,1,4,20,2,2,3,1685
1,61,"[2, 1]","[40, 20]","[1, 2]",2,1,2,40,4,2,1,1830
1,62,"[1, 2]","[60, 50]","[1, 2]",2,5,2,250,5,2,1,1564
1,63,"[1, 2]","[70, 40]","[1, 2]",2,1,2,40,4,2,1,1552
1,64,"[3, 4]","[50, 40]","[2, 2]",2,1,4,40,4,2,3,1822
1,65,"[2, 1]","[80, 70]","[1, 2]",2,5,2,400,8,2,1,1863
1,66,"[2, 1]","[60, 80]","[1, 2]",2,5,2,300,6,2,2,1735
1,67,"[4, 3]","[40, 60]","[2, 2]",2,5,4,200,4,2,4,1940
1,68,"[2, 1]","[50, 70]","[1, 1]",2,1,1,70,7,1,2,2150
1,69,"[1, 2]","[70, 60]","[1, 1]",2,1,1,70,7,1,1,1881
1,70,"[3, 4]","[70, 50]","[2, 1]",2,1,3,70,7,1,3,2086
1,71,"[3, 4]","[80, 60]","[2, 1]",2,5,3,400,8,1,3,1853
1,72,"[3, 4]","[60, 10]","[2, 1]",2,5,3,300,6,1,3,1702
1,73,"[1, 2]","[50, 10]","[1, 1]",2,1,1,50,5,1,1,1815
1,74,"[1, 2]","[30, 30]","[1, 1]",2,1,1,30,3,1,1,2533
1,75,"[4, 3]","[30, 10]","[2, 1]",2,1,3,10,1,1,3,1617
1,76,"[3, 4]","[70, 30]","[2, 2]",2,5,4,150,3,2,3,1579
1,77,"[2, 1]","[30, 50]","[1, 2]",2,5,2,150,3,2,2,1992
1,78,"[2, 1]","[10, 20]","[1, 2]",2,1,2,10,1,2,2,1766
1,79,"[2, 1]","[10, 10]","[1, 1]",2,5,1,50,1,1,2,1592
1,80,"[2, 1]","[10, 30]","[1, 1]",2,1,1,30,3,1,2,2550
1,1,"[4, 3]","[20, 50]","[2, 1]",1,1,3,50,5,1,4,3612
1,2,"[2, 1]","[20, 80]","[1, 2]",1,5,2,100,2,2,2,1854
1,3,"[4, 3]","[0, 40]","[2, 1]",1,1,3,40,4,1,4,1371
1,4,"[3, 4]","[40, 30]","[2, 1]",1,1,3,40,4,1,3,1686
1,5,"[1, 2]","[0, 10]","[1, 2]",1,5,2,50,1,2,2,1707
1,6,"[2, 1]","[10, 40]","[1, 2]",1,5,2,50,1,2,2,1728
1,7,"[2, 1]","[30, 30]","[1, 1]",1,1,1,30,3,1,2,1453
1,8,"[4, 3]","[40, 10]","[2, 1]",1,1,3,10,1,1,3,1372
1,9,"[4, 3]","[70, 20]","[2, 2]",1,5,4,350,7,2,3,1555
1,10,"[3, 4]","[30, 80]","[2, 2]",1,5,4,400,8,2,4,1380
1,11,"[4, 3]","[80, 50]","[2, 2]",1,5,4,400,8,2,3,4446
1,12,"[1, 2]","[30, 80]","[1, 2]",1,5,2,400,8,2,2,5647
1,13,"[3, 4]","[30, 40]","[2, 1]",1,1,3,30,3,1,4,2865
1,14,"[4, 3]","[50, 0]","[2, 1]",1,1,3,0,0,1,3,1486
1,15,"[4, 3]","[20, 0]","[2, 2]",1,1,4,20,2,2,3,1370
1,16,"[3, 4]","[10, 30]","[2, 2]",1,5,4,150,3,2,4,1409
1,17,"[3, 4]","[30, 30]","[2, 2]",1,5,4,150,3,2,3,1338
1,18,"[4, 3]","[50, 40]","[2, 2]",1,5,4,250,5,2,3,1415
1,19,"[1, 2]","[10, 70]","[1, 2]",1,1,2,70,7,2,2,1448
1,20,"[2, 1]","[70, 10]","[1, 2]",1,1,2,70,7,2,1,1463
1,21,"[3, 4]","[30, 60]","[2, 1]",1,5,3,150,3,1,4,1577
1,22,"[1, 2]","[40, 70]","[1, 1]",1,1,1,40,4,1,2,1600
1,23,"[4, 3]","[60, 30]","[2, 1]",1,1,3,30,3,1,3,1845
1,24,"[1, 2]","[10, 80]","[1, 2]",1,1,2,80,8,2,2,1456
1,25,"[3, 4]","[10, 80]","[2, 1]",1,5,3,50,1,1,4,1448
1,26,"[3, 4]","[0, 70]","[2, 1]",1,1,3,0,0,1,4,1579
1,27,"[2, 1]","[40, 30]","[1, 2]",1,1,2,40,4,2,1,1876
1,28,"[1, 2]","[50, 10]","[1, 2]",1,5,2,50,1,2,1,1865
1,29,"[3, 4]","[20, 30]","[2, 2]",1,5,4,150,3,2,4,2105
1,30,"[4, 3]","[30, 30]","[2, 2]",1,1,4,30,3,2,4,1754
1,31,"[4, 3]","[10, 20]","[2, 2]",1,5,4,50,1,2,4,1632
1,32,"[4, 3]","[10, 10]","[2, 2]",1,5,4,50,1,2,4,1618
1,33,"[4, 3]","[0, 20]","[2, 2]",1,1,4,0,0,2,4,1647
1,34,"[1, 2]","[10, 0]","[1, 2]",1,5,2,0,0,2,1,1601
1,35,"[2, 1]","[10, 0]","[1, 1]",1,5,1,0,0,1,1,1601
1,36,"[3, 4]","[40, 10]","[2, 1]",1,1,3,40,4,1,3,1683
1,37,"[4, 3]","[10, 50]","[2, 1]",1,1,3,50,5,1,4,1527
1,38,"[2, 1]","[20, 80]","[1, 2]",1,1,2,20,2,2,2,1801
1,39,"[3, 4]","[60, 20]","[2, 2]",1,1,4,20,2,2,3,1623
1,40,"[3, 4]","[60, 10]","[2, 1]",1,5,3,300,6,1,3,1781
1,41,"[2, 1]","[20, 60]","[1, 1]",2,5,1,300,6,1,2,2115
1,42,"[1, 2]","[90, 40]","[1, 1]",2,5,1,450,9,1,1,1596
1,43,"[2, 1]","[50, 60]","[1, 1]",2,5,1,300,6,1,2,1553
1,44,"[1, 2]","[80, 40]","[1, 2]",2,1,2,40,4,2,1,1609
1,45,"[1, 2]","[60, 50]","[1, 2]",2,1,2,50,5,2,1,1523
1,46,"[2, 1]","[40, 50]","[1, 2]",2,5,2,200,4,2,2,1707
1,47,"[4, 3]","[30, 40]","[2, 2]",2,5,4,150,3,2,4,1417
1,48,"[1, 2]","[0, 10]","[1, 2]",2,1,2,10,1,2,2,1486
1,49,"[3, 4]","[10, 10]","[2, 2]",2,1,4,10,1,2,3,1432
1,50,"[1, 2]","[30, 30]","[1, 1]",2,5,1,150,3,1,1,1662
1,51,"[2, 1]","[10, 60]","[1, 1]",2,1,1,60,6,1,2,1557
1,52,"[4, 3]","[0, 70]","[2, 1]",2,5,3,350,7,1,4,1607
1,53,"[2, 1]","[30, 60]","[1, 2]",2,1,2,30,3,2,2,1812
1,54,"[4, 3]","[30, 60]","[2, 1]",2,1,3,60,6,1,4,1516
1,55,"[1, 2]","[10, 20]","[1, 2]",2,5,2,100,2,2,2,1540
1,56,"[1, 2]","[20, 10]","[1, 2]",2,5,2,50,1,2,1,1494
1,57,"[4, 3]","[20, 0]","[2, 2]",2,1,4,20,2,2,3,1652
1,58,"[1, 2]","[0, 10]","[1, 1]",2,1,1,0,0,1,2,2039
1,59,"[4, 3]","[20, 10]","[2, 1]",2,1,3,10,1,1,3,1708
1,60,"[1, 2]","[0, 0]","[1, 1]",2,5,1,0,0,1,1,1549
1,61,"[3, 4]","[10, 10]","[2, 1]",2,5,3,50,1,1,3,1734
1,62,"[2, 1]","[10, 10]","[1, 2]",2,1,2,10,1,2,2,2358
1,63,"[4, 3]","[10, 0]","[2, 2]",2,5,4,50,1,2,3,2441
1,64,"[3, 4]","[20, 30]","[2, 1]",2,1,3,20,2,1,4,1630
1,65,"[4, 3]","[90, 30]","[2, 1]",2,1,3,30,3,1,3,1453
1,66,"[3, 4]","[40, 80]","[2, 2]",2,5,4,400,8,2,4,1499
1,67,"[1, 2]","[70, 60]","[1, 1]",2,5,1,350,7,1,1,1502
1,68,"[3, 4]","[60, 20]","[2, 2]",2,5,4,100,2,2,3,1568
1,69,"[3, 4]","[80, 10]","[2, 2]",2,5,4,50,1,2,3,1686
1,70,"[3, 4]","[80, 30]","[2, 1]",2,5,3,400,8,1,3,1770
1,71,"[1, 2]","[70, 50]","[1, 2]",2,1,2,50,5,2,1,1631
1,72,"[3, 4]","[60, 70]","[2, 2]",2,1,4,70,7,2,4,1707
1,73,"[3, 4]","[30, 40]","[2, 1]",2,5,3,150,3,1,4,1906
1,74,"[2, 1]","[60, 50]","[1, 1]",2,1,1,50,5,1,1,1744
1,75,"[1, 2]","[40, 50]","[1, 1]",2,1,1,40,4,1,2,1480
1,76,"[2, 1]","[40, 30]","[1, 1]",2,1,1,30,3,1,1,1651
1,77,"[1, 2]","[20, 40]","[1, 2]",2,1,2,40,4,2,2,2031
1,78,"[2, 1]","[60, 30]","[1, 2]",2,5,2,300,6,2,1,1662
1,79,"[4, 3]","[60, 30]","[2, 1]",2,5,3,150,3,1,3,1429
1,80,"[1, 2]","[20, 30]","[1, 1]",2,5,1,100,2,1,2,1394
2,1,"[1, 2]","[10, 50]","[1, 2]",1,1,2,50,5,2,2,3432
2,2,"[1, 2]","[0, 40]","[1, 1]",1,1,1,0,0,1,2,1775
2,3,"[3, 4]","[0, 60]","[2, 2]",1,5,4,300,6,2,4,1611
2,4,"[4, 3]","[70, 20]","[2, 2]",1,5,4,350,7,2,3,1825
2,5,"[4, 3]","[50, 0]","[2, 2]",1,5,4,250,5,2,3,1625
2,6,"[2, 1]","[90, 0]","[1, 1]",1,5,1,0,0,1,1,2008
2,7,"[2, 1]","[50, 20]","[1, 2]",1,5,2,250,5,2,1,1508
2,8,"[2, 1]","[30, 10]","[1, 2]",1,5,2,150,3,2,1,1642
2,9,"[4, 3]","[60, 10]","[2, 2]",1,1,4,60,6,2,3,3108
2,10,"[1, 2]","[10, 30]","[1, 1]",1,1,1,10,1,1,2,1525
2,11,"[3, 4]","[20, 20]","[2, 2]",1,5,4,100,2,2,3,1725
2,12,"[4, 3]","[30, 0]","[2, 1]",1,1,3,0,0,1,3,4175
2,13,"[1, 2]","[20, 30]","[1, 2]",1,5,2,150,3,2,2,2359
2,14,"[2, 1]","[0, 10]","[1, 2]",1,5,2,0,0,2,2,2676
2,15,"[4, 3]","[0, 0]","[2, 2]",1,1,4,0,0,2,4,1625
2,16,"[2, 1]","[10, 10]","[1, 1]",1,5,1,50,1,1,2,1909
2,17,"[1, 2]","[0, 10]","[1, 1]",1,5,1,0,0,1,2,1859
2,18,"[3, 4]","[10, 10]","[2, 2]",1,1,4,10,1,2,3,1809
2,19,"[2, 1]","[20, 20]","[1, 2]",1,1,2,20,2,2,2,2025
2,20,"[3, 4]","[20, 20]","[2, 2]",1,1,4,20,2,2,3,1975
2,21,"[3, 4]","[30, 0]","[2, 2]",1,1,4,0,0,2,3,1992
2,22,"[3, 4]","[50, 20]","[2, 1]",1,1,3,50,5,1,3,1659
2,23,"[4, 3]","[20, 60]","[2, 1]",1,1,3,60,6,1,4,1708
2,24,"[4, 3]","[30, 50]","[2, 1]",1,1,3,50,5,1,4,3325
2,25,"[3, 4]","[70, 40]","[2, 1]",1,1,3,70,7,1,3,1892
2,26,"[2, 1]","[40, 70]","[1, 2]",1,5,2,200,4,2,2,2076
2,27,"[1, 2]","[30, 20]","[1, 2]",1,1,2,20,2,2,1,1742
2,28,"[1, 2]","[50, 20]","[1, 2]",1,1,2,20,2,2,1,1742
2,29,"[3, 4]","[50, 20]","[2, 1]",1,5,3,250,5,1,3,1642
2,30,"[4, 3]","[20, 50]","[2, 1]",1,1,3,50,5,1,4,1976
2,31,"[1, 2]","[60, 10]","[1, 1]",1,5,1,300,6,1,1,1576
2,32,"[3, 4]","[40, 20]","[2, 1]",1,5,3,200,4,1,3,2043
2,33,"[3, 4]","[70, 10]","[2, 1]",1,1,3,70,7,1,3,1825
2,34,"[2, 1]","[10, 90]","[1, 1]",1,5,1,450,9,1,2,1926
2,35,"[4, 3]","[20, 90]","[2, 2]",1,1,4,20,2,2,4,1575
2,36,"[4, 3]","[30, 80]","[2, 1]",1,1,3,80,8,1,4,1945
2,37,"[4, 3]","[20, 70]","[2, 1]",1,1,3,70,7,1,4,1562
2,38,"[2, 1]","[60, 70]","[1, 1]",1,1,1,70,7,1,2,1775
2,39,"[1, 2]","[70, 40]","[1, 1]",1,1,1,70,7,1,1,1508
2,40,"[2, 1]","[40, 90]","[1, 1]",1,5,1,450,9,1,2,1543
2,41,"[3, 4]","[70, 30]","[2, 1]",2,1,3,70,7,1,3,2349
2,42,"[4, 3]","[10, 60]","[2, 1]",2,1,3,60,6,1,4,1693
2,43,"[4, 3]","[20, 80]","[2, 2]",2,1,4,20,2,2,4,1659
2,44,"[2, 1]","[10, 60]","[1, 1]",2,5,1,300,6,1,2,1443
2,45,"[2, 1]","[10, 70]","[1, 2]",2,1,2,10,1,2,2,1676
2,46,"[1, 2]","[80, 20]","[1, 2]",2,5,2,100,2,2,1,1578
2,47,"[3, 4]","[80, 10]","[2, 2]",2,5,4,50,1,2,3,1593
2,48,"[1, 2]","[70, 30]","[1, 2]",2,5,2,150,3,2,1,1559
2,49,"[3, 4]","[50, 10]","[2, 2]",2,5,4,50,1,2,3,1859
2,50,"[2, 1]","[10, 80]","[1, 1]",2,1,1,80,8,1,2,1560
2,51,"[2, 1]","[20, 90]","[1, 2]",2,5,2,100,2,2,2,1509
2,52,"[4, 3]","[30, 80]","[2, 1]",2,5,3,400,8,1,4,1526
2,53,"[4, 3]","[50, 70]","[2, 1]",2,1,3,70,7,1,4,2175
2,54,"[3, 4]","[90, 60]","[2, 1]",2,1,3,90,9,1,3,1992
2,55,"[3, 4]","[50, 50]","[2, 1]",2,5,3,250,5,1,3,1841
2,56,"[3, 4]","[40, 80]","[2, 1]",2,5,3,200,4,1,4,1709
2,57,"[1, 2]","[60, 70]","[1, 2]",2,5,2,350,7,2,2,1792
2,58,"[4, 3]","[70, 90]","[2, 2]",2,1,4,70,7,2,4,1725
2,59,"[3, 4]","[80, 30]","[2, 1]",2,1,3,80,8,1,3,1708
2,60,"[1, 2]","[70, 20]","[1, 2]",2,1,2,20,2,2,1,1792
2,61,"[4, 3]","[30, 70]","[2, 2]",2,5,4,150,3,2,4,1609
2,62,"[2, 1]","[10, 70]","[1, 2]",2,5,2,50,1,2,2,1625
2,63,"[3, 4]","[80, 20]","[2, 1]",2,5,3,400,8,1,3,2159
2,64,"[4, 3]","[50, 90]","[2, 1]",2,5,3,450,9,1,4,1542
2,65,"[2, 1]","[50, 80]","[1, 1]",2,5,1,400,8,1,2,2659
2,66,"[2, 1]","[80, 70]","[1, 1]",2,5,1,350,7,1,1,1559
2,67,"[2, 1]","[60, 40]","[1, 1]",2,5,1,200,4,1,1,1576
2,68,"[1, 2]","[50, 50]","[1, 1]",2,5,1,250,5,1,1,1975
2,69,"[4, 3]","[40, 50]","[2, 1]",2,1,3,50,5,1,4,1559
2,70,"[3, 4]","[40, 60]","[2, 1]",2,1,3,40,4,1,4,1792
2,71,"[4, 3]","[90, 80]","[2, 1]",2,5,3,400,8,1,3,1609
2,72,"[3, 4]","[90, 70]","[2, 1]",2,5,3,450,9,1,3,2042
2,73,"[4, 3]","[80, 70]","[2, 1]",2,1,3,70,7,1,3,1742
2,74,"[4, 3]","[50, 80]","[2, 1]",2,5,3,400,8,1,4,1676
2,75,"[1, 2]","[70, 80]","[1, 1]",2,1,1,70,7,1,2,1759
2,76,"[2, 1]","[70, 70]","[1, 1]",2,1,1,70,7,1,2,1609
2,77,"[2, 1]","[70, 20]","[1, 1]",2,5,1,100,2,1,1,1592
2,78,"[1, 2]","[10, 60]","[1, 1]",2,1,1,10,1,1,2,1508
2,79,"[4, 3]","[70, 20]","[2, 2]",2,5,4,350,7,2,3,1658
2,80,"[4, 3]","[60, 80]","[2, 2]",2,1,4,60,6,2,4,2226
3,1,"[1, 2]","[60, 20]","[1, 2]",1,1,2,20,2,2,1,29599
3,2,"[3, 4]","[50, 20]","[2, 1]",1,5,3,250,5,1,3,1705
3,3,"[3, 4]","[10, 30]","[2, 1]",1,1,3,10,1,1,4,2605
3,4,"[2, 1]","[50, 40]","[1, 2]",1,1,2,50,5,2,1,2822
3,5,"[1, 2]","[60, 50]","[1, 2]",1,5,2,250,5,2,1,2389
3,6,"[3, 4]","[30, 50]","[2, 2]",1,5,4,250,5,2,4,3054
3,7,"[4, 3]","[40, 50]","[2, 2]",1,5,4,200,4,2,4,2522
3,8,"[3, 4]","[80, 40]","[2, 1]",1,5,3,400,8,1,3,2655
3,9,"[1, 2]","[50, 30]","[1, 1]",1,1,1,50,5,1,1,2355
3,10,"[2, 1]","[50, 30]","[1, 1]",1,5,1,150,3,1,1,2189
3,11,"[3, 4]","[20, 60]","[2, 2]",1,1,4,60,6,2,4,2039
3,12,"[4, 3]","[50, 20]","[2, 2]",1,5,4,250,5,2,3,1755
3,13,"[4, 3]","[20, 10]","[2, 2]",1,5,4,100,2,2,3,2589
3,14,"[4, 3]","[40, 20]","[2, 1]",1,1,3,20,2,1,3,1838
3,15,"[1, 2]","[60, 50]","[1, 1]",1,1,1,60,6,1,1,2071
3,16,"[3, 4]","[90, 30]","[2, 1]",1,1,3,90,9,1,3,2105
3,17,"[3, 4]","[60, 30]","[2, 1]",1,5,3,300,6,1,3,1756
3,18,"[3, 4]","[50, 40]","[2, 1]",1,5,3,250,5,1,3,2872
3,19,"[4, 3]","[50, 70]","[2, 2]",1,1,4,50,5,2,4,3988
3,20,"[3, 4]","[10, 50]","[2, 2]",1,5,4,250,5,2,4,2008
3,21,"[1, 2]","[20, 50]","[1, 1]",1,1,1,20,2,1,2,3254
3,22,"[1, 2]","[60, 50]","[1, 2]",1,1,2,50,5,2,1,2289
3,23,"[1, 2]","[80, 70]","[1, 2]",1,1,2,70,7,2,1,1755
3,24,"[3, 4]","[80, 70]","[2, 2]",1,1,4,70,7,2,3,1938
3,25,"[4, 3]","[70, 70]","[2, 2]",1,5,4,350,7,2,4,1739
3,26,"[4, 3]","[50, 60]","[2, 2]",1,1,4,50,5,2,4,1622
3,27,"[2, 1]","[60, 70]","[1, 1]",1,1,1,70,7,1,2,4557
3,28,"[3, 4]","[50, 70]","[2, 1]",1,5,3,250,5,1,4,8589
3,29,"[3, 4]","[80, 80]","[2, 2]",1,1,4,80,8,2,3,1905
3,30,"[3, 4]","[70, 60]","[2, 2]",1,1,4,60,6,2,3,1822
3,31,"[4, 3]","[80, 50]","[2, 2]",1,5,4,400,8,2,3,1972
3,32,"[1, 2]","[50, 80]","[1, 2]",1,5,2,400,8,2,2,2322
3,33,"[3, 4]","[30, 90]","[2, 2]",1,1,4,90,9,2,4,1555
3,34,"[2, 1]","[80, 30]","[1, 2]",1,5,2,400,8,2,1,1921
3,35,"[1, 2]","[30, 70]","[1, 2]",1,1,2,70,7,2,2,2088
3,36,"[4, 3]","[70, 50]","[2, 2]",1,1,4,70,7,2,3,1805
3,37,"[1, 2]","[50, 50]","[1, 2]",1,5,2,250,5,2,1,2605
3,38,"[1, 2]","[70, 60]","[1, 2]",1,1,2,60,6,2,1,2489
3,39,"[2, 1]","[60, 50]","[1, 2]",1,5,2,300,6,2,1,2255
3,40,"[2, 1]","[50, 20]","[1, 2]",1,1,2,50,5,2,1,1905
3,41,"[1, 2]","[10, 40]","[1, 2]",2,5,2,200,4,2,2,4966
3,42,"[3, 4]","[20, 30]","[2, 1]",2,1,3,20,2,1,4,2122
3,43,"[2, 1]","[10, 0]","[1, 2]",2,1,2,10,1,2,1,1705
3,44,"[3, 4]","[20, 10]","[2, 1]",2,1,3,20,2,1,3,2255
3,45,"[4, 3]","[0, 10]","[2, 1]",2,1,3,10,1,1,4,1521
3,46,"[2, 1]","[0, 10]","[1, 2]",2,5,2,0,0,2,2,4089
3,47,"[1, 2]","[0, 10]","[1, 2]",2,1,2,10,1,2,2,4087
3,48,"[2, 1]","[0, 20]","[1, 1]",2,1,1,20,2,1,2,3172
3,49,"[3, 4]","[20, 10]","[2, 1]",2,5,3,100,2,1,3,2138
3,50,"[1, 2]","[40, 30]","[1, 2]",2,1,2,30,3,2,1,5005
3,51,"[4, 3]","[50, 50]","[2, 2]",2,1,4,50,5,2,4,2339
3,52,"[2, 1]","[70, 60]","[1, 1]",2,1,1,60,6,1,1,5871
3,53,"[2, 1]","[70, 70]","[1, 1]",2,1,1,70,7,1,2,2055
3,54,"[3, 4]","[80, 50]","[2, 1]",2,5,3,400,8,1,3,1554
3,55,"[2, 1]","[40, 90]","[1, 1]",2,1,1,90,9,1,2,3955
3,56,"[4, 3]","[40, 80]","[2, 1]",2,5,3,400,8,1,4,2106
3,57,"[2, 1]","[50, 90]","[1, 1]",2,5,1,450,9,1,2,5872
3,58,"[3, 4]","[70, 70]","[2, 1]",2,5,3,350,7,1,3,1591
3,59,"[1, 2]","[70, 30]","[1, 1]",2,1,1,70,7,1,1,2288
3,60,"[1, 2]","[80, 40]","[1, 1]",2,5,1,400,8,1,1,3105
3,61,"[2, 1]","[10, 90]","[1, 2]",2,5,2,50,1,2,2,1738
3,62,"[3, 4]","[80, 10]","[2, 1]",2,5,3,400,8,1,3,2088
3,63,"[1, 2]","[70, 20]","[1, 1]",2,5,1,350,7,1,1,2439
3,64,"[3, 4]","[60, 40]","[2, 1]",2,5,3,300,6,1,3,3222
3,65,"[1, 2]","[30, 20]","[1, 1]",2,1,1,30,3,1,1,2155
3,66,"[1, 2]","[20, 30]","[1, 2]",2,5,2,150,3,2,2,3989
3,67,"[3, 4]","[10, 20]","[2, 2]",2,5,4,100,2,2,4,3704
3,68,"[4, 3]","[0, 10]","[2, 1]",2,5,3,50,1,1,4,3455
3,69,"[4, 3]","[30, 20]","[2, 2]",2,5,4,150,3,2,3,2622
3,70,"[1, 2]","[10, 10]","[1, 2]",2,1,2,10,1,2,1,4739
3,71,"[4, 3]","[30, 10]","[2, 1]",2,5,3,50,1,1,3,2605
3,72,"[2, 1]","[10, 40]","[1, 1]",2,5,1,200,4,1,2,4371
3,73,"[1, 2]","[30, 20]","[1, 1]",2,5,1,150,3,1,1,4522
3,74,"[2, 1]","[30, 20]","[1, 2]",2,1,2,30,3,2,1,3305
3,75,"[4, 3]","[30, 20]","[2, 1]",2,5,3,100,2,1,3,1938
3,76,"[3, 4]","[40, 30]","[2, 2]",2,1,4,30,3,2,3,2106
3,77,"[4, 3]","[30, 50]","[2, 2]",2,1,4,30,3,2,4,2339
3,78,"[2, 1]","[50, 70]","[1, 1]",2,5,1,350,7,1,2,2604
3,79,"[1, 2]","[90, 80]","[1, 1]",2,5,1,450,9,1,1,2322
3,80,"[3, 4]","[30, 70]","[2, 1]",2,1,3,30,3,1,4,3205
4,1,"[1, 2]","[60, 40]","[1, 2]",1,1,2,40,4,2,1,9625
4,2,"[4, 3]","[30, 90]","[2, 1]",1,1,3,90,9,1,4,2633
4,3,"[4, 3]","[50, 60]","[2, 1]",1,1,3,60,6,1,4,2166
4,4,"[1, 2]","[80, 50]","[1, 1]",1,5,1,400,8,1,1,9261
4,5,"[3, 4]","[70, 40]","[2, 1]",1,5,3,350,7,1,3,8194
4,6,"[2, 1]","[50, 80]","[1, 1]",1,5,1,400,8,1,2,2611
4,7,"[4, 3]","[60, 90]","[2, 1]",1,1,3,90,9,1,4,3996
4,8,"[1, 2]","[70, 40]","[1, 2]",1,1,2,40,4,2,1,2291
4,9,"[2, 1]","[20, 60]","[1, 1]",1,1,1,60,6,1,2,1896
4,10,"[4, 3]","[0, 70]","[2, 1]",1,1,3,70,7,1,4,2718
4,11,"[4, 3]","[30, 80]","[2, 1]",1,5,3,400,8,1,4,3848
4,12,"[1, 2]","[60, 40]","[1, 2]",1,1,2,40,4,2,1,3893
4,13,"[3, 4]","[60, 30]","[2, 1]",1,5,3,300,6,1,3,3547
4,14,"[4, 3]","[30, 80]","[2, 1]",1,1,3,80,8,1,4,2211
4,15,"[1, 2]","[80, 50]","[1, 1]",1,5,1,400,8,1,1,2300
4,16,"[3, 4]","[80, 30]","[2, 1]",1,5,3,400,8,1,3,3256
4,17,"[2, 1]","[60, 90]","[1, 1]",1,5,1,450,9,1,2,2225
4,18,"[4, 3]","[50, 90]","[2, 1]",1,1,3,90,9,1,4,4670
4,19,"[2, 1]","[90, 50]","[1, 1]",1,1,1,50,5,1,1,7360
4,20,"[4, 3]","[70, 80]","[2, 1]",1,5,3,400,8,1,4,6094
4,21,"[3, 4]","[80, 50]","[2, 2]",1,5,4,250,5,2,3,3444
4,22,"[3, 4]","[80, 50]","[2, 1]",1,5,3,400,8,1,3,3198
4,23,"[4, 3]","[40, 80]","[2, 1]",1,1,3,80,8,1,4,1948
4,24,"[1, 2]","[90, 50]","[1, 2]",1,1,2,50,5,2,1,1673
4,25,"[4, 3]","[60, 60]","[2, 1]",1,1,3,60,6,1,4,2152
4,26,"[1, 2]","[80, 80]","[1, 2]",1,5,2,400,8,2,1,3453
4,27,"[1, 2]","[80, 70]","[1, 2]",1,1,2,70,7,2,1,1764
4,28,"[2, 1]","[60, 70]","[1, 2]",1,1,2,60,6,2,2,2207
4,29,"[4, 3]","[40, 90]","[2, 1]",1,1,3,90,9,1,4,2092
4,30,"[2, 1]","[30, 70]","[1, 2]",1,1,2,30,3,2,2,2194
4,31,"[2, 1]","[60, 80]","[1, 1]",1,1,1,80,8,1,2,1676
4,32,"[2, 1]","[50, 80]","[1, 1]",1,1,1,80,8,1,2,1746
4,33,"[2, 1]","[40, 90]","[1, 1]",1,5,1,450,9,1,2,2035
4,34,"[3, 4]","[90, 50]","[2, 1]",1,5,3,450,9,1,3,4491
4,35,"[2, 1]","[60, 70]","[1, 1]",1,1,1,70,7,1,2,2052
4,36,"[1, 2]","[50, 90]","[1, 1]",1,1,1,50,5,1,2,7840
4,37,"[3, 4]","[50, 70]","[2, 1]",1,5,3,250,5,1,4,2094
4,38,"[3, 4]","[40, 60]","[2, 1]",1,5,3,200,4,1,4,1996
4,39,"[2, 1]","[60, 10]","[1, 1]",1,5,1,50,1,1,1,2223
4,40,"[2, 1]","[70, 50]","[1, 1]",1,5,1,250,5,1,1,2915
4,41,"[3, 4]","[80, 80]","[2, 1]",2,1,3,80,8,1,3,9691
4,42,"[1, 2]","[80, 70]","[1, 2]",2,1,2,70,7,2,1,1661
4,43,"[2, 1]","[70, 90]","[1, 2]",2,5,2,350,7,2,2,1786
4,44,"[4, 3]","[80, 60]","[2, 1]",2,5,3,300,6,1,3,1944
4,45,"[1, 2]","[80, 80]","[1, 2]",2,1,2,80,8,2,1,2716
4,46,"[4, 3]","[80, 80]","[2, 1]",2,1,3,80,8,1,4,2207
4,47,"[2, 1]","[70, 30]","[1, 2]",2,5,2,350,7,2,1,4393
4,48,"[3, 4]","[10, 20]","[2, 2]",2,1,4,20,2,2,4,3291
4,49,"[1, 2]","[20, 20]","[1, 2]",2,5,2,100,2,2,1,2340
4,50,"[4, 3]","[20, 20]","[2, 2]",2,1,4,20,2,2,4,2535
4,51,"[3, 4]","[30, 30]","[2, 1]",2,1,3,30,3,1,3,1772
4,52,"[1, 2]","[50, 40]","[1, 1]",2,5,1,250,5,1,1,3545
4,53,"[1, 2]","[50, 60]","[1, 2]",2,5,2,300,6,2,2,6547
4,54,"[1, 2]","[60, 60]","[1, 2]",2,5,2,300,6,2,1,2045
4,55,"[4, 3]","[80, 70]","[2, 1]",2,1,3,70,7,1,3,1921
4,56,"[4, 3]","[70, 80]","[2, 1]",2,1,3,80,8,1,4,1602
4,57,"[1, 2]","[80, 80]","[1, 1]",2,5,1,400,8,1,1,1693
4,58,"[1, 2]","[60, 90]","[1, 1]",2,5,1,300,6,1,2,1884
4,59,"[3, 4]","[90, 60]","[2, 1]",2,5,3,450,9,1,3,2419
4,60,"[2, 1]","[60, 80]","[1, 1]",2,5,1,400,8,1,2,1928
4,61,"[1, 2]","[80, 60]","[1, 2]",2,1,2,60,6,2,1,2951
4,62,"[4, 3]","[90, 70]","[2, 1]",2,5,3,350,7,1,3,2966
4,63,"[2, 1]","[80, 80]","[1, 1]",2,5,1,400,8,1,2,2292
4,64,"[4, 3]","[80, 90]","[2, 2]",2,5,4,400,8,2,4,2024
4,65,"[3, 4]","[80, 60]","[2, 2]",2,5,4,300,6,2,3,4990
4,66,"[4, 3]","[50, 70]","[2, 2]",2,5,4,250,5,2,4,2165
4,67,"[3, 4]","[50, 70]","[2, 1]",2,5,3,250,5,1,4,1730
4,68,"[4, 3]","[90, 60]","[2, 1]",2,5,3,300,6,1,3,2074
4,69,"[1, 2]","[60, 50]","[1, 2]",2,1,2,50,5,2,1,2027
4,70,"[1, 2]","[50, 60]","[1, 1]",2,1,1,50,5,1,2,1966
4,71,"[1, 2]","[90, 20]","[1, 2]",2,5,2,100,2,2,1,2968
4,72,"[4, 3]","[30, 50]","[2, 2]",2,1,4,30,3,2,4,1896
4,73,"[3, 4]","[20, 60]","[2, 1]",2,5,3,100,2,1,4,2037
4,74,"[3, 4]","[30, 50]","[2, 1]",2,1,3,30,3,1,4,2007
4,75,"[2, 1]","[70, 30]","[1, 2]",2,1,2,70,7,2,1,1638
4,76,"[4, 3]","[80, 10]","[2, 2]",2,1,4,80,8,2,3,2360
4,77,"[3, 4]","[10, 60]","[2, 2]",2,5,4,300,6,2,4,1925
4,78,"[1, 2]","[20, 60]","[1, 2]",2,1,2,60,6,2,2,1788
4,79,"[3, 4]","[20, 60]","[2, 2]",2,1,4,60,6,2,4,1921
4,80,"[2, 1]","[80, 30]","[1, 2]",2,5,2,400,8,2,1,2584
5,1,"[1, 2]","[30, 80]","[1, 1]",1,1,1,30,3,1,2,8746
5,2,"[1, 2]","[20, 80]","[1, 2]",1,1,2,80,8,2,2,2108
5,3,"[3, 4]","[10, 60]","[2, 2]",1,5,4,300,6,2,4,1659
5,4,"[4, 3]","[90, 10]","[2, 2]",1,5,4,450,9,2,3,3049
5,5,"[2, 1]","[70, 0]","[1, 2]",1,5,2,350,7,2,1,1984
5,6,"[1, 2]","[20, 50]","[1, 2]",1,1,2,50,5,2,2,2003
5,7,"[1, 2]","[10, 40]","[1, 2]",1,5,2,200,4,2,2,1712
5,8,"[2, 1]","[60, 10]","[1, 1]",1,5,1,50,1,1,1,3368
5,9,"[2, 1]","[80, 10]","[1, 2]",1,1,2,80,8,2,1,2088
5,10,"[2, 1]","[70, 10]","[1, 2]",1,1,2,70,7,2,1,1741
5,11,"[1, 2]","[30, 40]","[1, 2]",1,1,2,40,4,2,2,1943
5,12,"[4, 3]","[40, 20]","[2, 2]",1,1,4,40,4,2,3,1811
5,13,"[4, 3]","[50, 30]","[2, 2]",1,1,4,50,5,2,3,1626
5,14,"[4, 3]","[10, 10]","[2, 1]",1,1,3,10,1,1,4,1858
5,15,"[4, 3]","[0, 20]","[2, 2]",1,5,4,0,0,2,4,1569
5,16,"[2, 1]","[20, 20]","[1, 1]",1,5,1,100,2,1,2,2423
5,17,"[3, 4]","[20, 20]","[2, 1]",1,5,3,100,2,1,3,2081
5,18,"[4, 3]","[40, 40]","[2, 2]",1,5,4,200,4,2,4,2313
5,19,"[1, 2]","[50, 20]","[1, 2]",1,5,2,100,2,2,1,2160
5,20,"[3, 4]","[50, 10]","[2, 1]",1,1,3,50,5,1,3,2112
5,21,"[2, 1]","[30, 60]","[1, 1]",1,5,1,300,6,1,2,2032
5,22,"[3, 4]","[30, 20]","[2, 1]",1,1,3,30,3,1,3,2051
5,23,"[1, 2]","[30, 30]","[1, 1]",1,1,1,30,3,1,1,2314
5,24,"[4, 3]","[0, 30]","[2, 1]",1,1,3,30,3,1,4,1811
5,25,"[1, 2]","[20, 20]","[1, 2]",1,5,2,100,2,2,1,2298
5,26,"[1, 2]","[60, 30]","[1, 1]",1,5,1,300,6,1,1,1608
5,27,"[2, 1]","[40, 30]","[1, 1]",1,1,1,30,3,1,1,1975
5,28,"[2, 1]","[50, 50]","[1, 1]",1,5,1,250,5,1,2,1702
5,29,"[3, 4]","[30, 40]","[2, 1]",1,5,3,150,3,1,4,2069
5,30,"[2, 1]","[70, 40]","[1, 2]",1,1,2,70,7,2,1,2320
5,31,"[1, 2]","[40, 70]","[1, 2]",1,1,2,70,7,2,2,1702
5,32,"[4, 3]","[90, 60]","[2, 2]",1,5,4,450,9,2,3,2085
5,33,"[1, 2]","[70, 70]","[1, 2]",1,1,2,70,7,2,1,2841
5,34,"[4, 3]","[80, 60]","[2, 2]",1,5,4,400,8,2,3,1780
5,35,"[2, 1]","[90, 80]","[1, 2]",1,1,2,90,9,2,1,2273
5,36,"[4, 3]","[90, 70]","[2, 2]",1,5,4,450,9,2,3,2614
5,37,"[1, 2]","[40, 70]","[1, 2]",1,5,2,350,7,2,2,1956
5,38,"[2, 1]","[70, 30]","[1, 2]",1,1,2,70,7,2,1,1669
5,39,"[2, 1]","[60, 20]","[1, 2]",1,5,2,300,6,2,1,1951
5,40,"[4, 3]","[80, 10]","[2, 2]",1,1,4,80,8,2,3,1812
5,41,"[1, 2]","[20, 50]","[1, 1]",2,5,1,100,2,1,2,7091
5,42,"[2, 1]","[70, 10]","[1, 2]",2,1,2,70,7,2,1,2103
5,43,"[3, 4]","[20, 80]","[2, 2]",2,1,4,80,8,2,4,1751
5,44,"[2, 1]","[70, 0]","[1, 2]",2,5,2,350,7,2,1,1703
5,45,"[2, 1]","[30, 10]","[1, 2]",2,5,2,150,3,2,1,1933
5,46,"[4, 3]","[40, 10]","[2, 2]",2,1,4,40,4,2,3,1794
5,47,"[2, 1]","[30, 10]","[1, 1]",2,1,1,10,1,1,1,2189
5,48,"[4, 3]","[60, 30]","[2, 2]",2,5,4,300,6,2,3,1871
5,49,"[4, 3]","[70, 10]","[2, 2]",2,1,4,70,7,2,3,1819
5,50,"[1, 2]","[10, 50]","[1, 2]",2,1,2,50,5,2,2,2118
5,51,"[2, 1]","[40, 30]","[1, 2]",2,1,2,40,4,2,1,1710
5,52,"[4, 3]","[20, 40]","[2, 2]",2,5,4,100,2,2,4,1822
5,53,"[4, 3]","[30, 40]","[2, 1]",2,1,3,40,4,1,4,2922
5,54,"[2, 1]","[20, 50]","[1, 1]",2,5,1,250,5,1,2,2137
5,55,"[1, 2]","[60, 10]","[1, 2]",2,1,2,10,1,2,1,3689
5,56,"[3, 4]","[40, 20]","[2, 1]",2,5,3,200,4,1,3,2020
5,57,"[3, 4]","[50, 30]","[2, 1]",2,1,3,50,5,1,3,2580
5,58,"[3, 4]","[30, 40]","[2, 1]",2,5,3,150,3,1,4,1703
5,59,"[1, 2]","[30, 40]","[1, 1]",2,5,1,150,3,1,2,1551
5,60,"[4, 3]","[30, 20]","[2, 1]",2,5,3,100,2,1,3,2824
5,61,"[3, 4]","[40, 20]","[2, 1]",2,5,3,200,4,1,3,2641
5,62,"[3, 4]","[20, 20]","[2, 2]",2,1,4,20,2,2,3,2206
5,63,"[4, 3]","[20, 30]","[2, 1]",2,5,3,150,3,1,4,1941
5,64,"[2, 1]","[40, 60]","[1, 1]",2,1,1,60,6,1,2,2004
5,65,"[1, 2]","[80, 60]","[1, 1]",2,5,1,400,8,1,1,2338
5,66,"[1, 2]","[70, 0]","[1, 1]",2,5,1,350,7,1,1,1873
5,67,"[4, 3]","[10, 80]","[2, 1]",2,1,3,80,8,1,4,1963
5,68,"[4, 3]","[20, 60]","[2, 1]",2,1,3,60,6,1,4,1757
5,69,"[3, 4]","[40, 10]","[2, 1]",2,5,3,200,4,1,3,2865
5,70,"[2, 1]","[10, 30]","[1, 1]",2,5,1,150,3,1,2,2086
5,71,"[4, 3]","[10, 40]","[2, 1]",2,1,3,40,4,1,4,1709
5,72,"[1, 2]","[70, 30]","[1, 1]",2,1,1,70,7,1,1,1764
5,73,"[4, 3]","[10, 60]","[2, 1]",2,5,3,300,6,1,4,2943
5,74,"[4, 3]","[20, 60]","[2, 1]",2,1,3,60,6,1,4,1786
5,75,"[4, 3]","[10, 80]","[2, 1]",2,1,3,80,8,1,4,1520
5,76,"[2, 1]","[20, 60]","[1, 1]",2,5,1,300,6,1,2,1938
5,77,"[3, 4]","[80, 10]","[2, 1]",2,5,3,400,8,1,3,1814
5,78,"[4, 3]","[10, 90]","[2, 1]",2,1,3,90,9,1,4,1904
5,79,"[1, 2]","[90, 10]","[1, 1]",2,1,1,90,9,1,1,1805
5,80,"[2, 1]","[10, 70]","[1, 1]",2,5,1,350,7,1,2,2008
6,1,"[3, 4]","[40, 70]","[2, 1]",1,1,3,40,4,1,4,18099
6,2,"[2, 1]","[70, 40]","[1, 1]",1,1,1,40,4,1,1,3424
6,3,"[3, 4]","[60, 60]","[2, 2]",1,5,4,300,6,2,3,2560
6,4,"[3, 4]","[20, 80]","[2, 2]",1,5,4,400,8,2,4,1856
6,5,"[4, 3]","[90, 40]","[2, 2]",1,5,4,450,9,2,3,2079
6,6,"[4, 3]","[80, 30]","[2, 2]",1,1,4,80,8,2,3,2789
6,7,"[4, 3]","[80, 50]","[2, 2]",1,5,4,400,8,2,3,2452
6,8,"[4, 3]","[60, 70]","[2, 2]",1,1,4,60,6,2,4,1881
6,9,"[2, 1]","[50, 80]","[1, 2]",1,5,2,250,5,2,2,4759
6,10,"[4, 3]","[10, 70]","[2, 2]",1,5,4,50,1,2,4,2420
6,11,"[3, 4]","[80, 40]","[2, 1]",1,1,3,80,8,1,3,3168
6,12,"[4, 3]","[20, 40]","[2, 1]",1,5,3,200,4,1,4,2043
6,13,"[4, 3]","[10, 80]","[2, 1]",1,5,3,400,8,1,4,1871
6,14,"[2, 1]","[0, 70]","[1, 1]",1,5,1,350,7,1,2,3175
6,15,"[1, 2]","[90, 10]","[1, 1]",1,1,1,90,9,1,1,3507
6,16,"[3, 4]","[80, 10]","[2, 1]",1,5,3,400,8,1,3,2116
6,17,"[4, 3]","[30, 60]","[2, 1]",1,5,3,300,6,1,4,2355
6,18,"[1, 2]","[60, 30]","[1, 2]",1,1,2,30,3,2,1,6746
6,19,"[1, 2]","[70, 70]","[1, 1]",1,1,1,70,7,1,1,2494
6,20,"[1, 2]","[50, 40]","[1, 1]",1,1,1,50,5,1,1,1792
6,21,"[2, 1]","[70, 40]","[1, 1]",1,1,1,40,4,1,1,2259
6,22,"[1, 2]","[20, 70]","[1, 2]",1,5,2,350,7,2,2,2615
6,23,"[1, 2]","[40, 60]","[1, 2]",1,1,2,60,6,2,2,1742
6,24,"[4, 3]","[50, 50]","[2, 2]",1,1,4,50,5,2,4,2575
6,25,"[1, 2]","[60, 50]","[1, 2]",1,5,2,250,5,2,1,2046
6,26,"[3, 4]","[80, 20]","[2, 1]",1,5,3,400,8,1,3,2003
6,27,"[3, 4]","[70, 50]","[2, 1]",1,1,3,70,7,1,3,1701
6,28,"[3, 4]","[90, 60]","[2, 1]",1,1,3,90,9,1,3,1676
6,29,"[4, 3]","[20, 70]","[2, 1]",1,5,3,350,7,1,4,1898
6,30,"[2, 1]","[40, 60]","[1, 1]",1,1,1,60,6,1,2,2384
6,31,"[3, 4]","[90, 20]","[2, 1]",1,1,3,90,9,1,3,2125
6,32,"[4, 3]","[10, 70]","[2, 1]",1,5,3,350,7,1,4,2613
6,33,"[1, 2]","[40, 40]","[1, 2]",1,5,2,200,4,2,1,4673
6,34,"[1, 2]","[30, 60]","[1, 1]",1,1,1,30,3,1,2,2217
6,35,"[1, 2]","[10, 60]","[1, 1]",1,1,1,10,1,1,2,1771
6,36,"[2, 1]","[60, 50]","[1, 2]",1,1,2,60,6,2,1,1754
6,37,"[1, 2]","[70, 50]","[1, 2]",1,1,2,50,5,2,1,1619
6,38,"[1, 2]","[90, 40]","[1, 2]",1,1,2,40,4,2,1,1631
6,39,"[1, 2]","[80, 40]","[1, 2]",1,5,2,200,4,2,1,1932
6,40,"[2, 1]","[50, 90]","[1, 1]",1,5,1,450,9,1,2,2947
6,41,"[1, 2]","[70, 50]","[1, 2]",2,5,2,250,5,2,1,6433
6,42,"[1, 2]","[60, 70]","[1, 2]",2,1,2,70,7,2,2,2289
6,43,"[1, 2]","[60, 80]","[1, 2]",2,5,2,400,8,2,2,1515
6,44,"[1, 2]","[80, 80]","[1, 2]",2,1,2,80,8,2,1,1748
6,45,"[2, 1]","[90, 90]","[1, 2]",2,5,2,450,9,2,2,1677
6,46,"[4, 3]","[50, 70]","[2, 2]",2,1,4,50,5,2,4,2375
6,47,"[3, 4]","[80, 80]","[2, 1]",2,5,3,400,8,1,3,1627
6,48,"[1, 2]","[50, 80]","[1, 1]",2,5,1,250,5,1,2,2664
6,49,"[2, 1]","[60, 40]","[1, 1]",2,1,1,40,4,1,1,2879
6,50,"[3, 4]","[70, 70]","[2, 2]",2,1,4,70,7,2,3,2629
6,51,"[3, 4]","[30, 80]","[2, 2]",2,5,4,400,8,2,4,1635
6,52,"[4, 3]","[70, 10]","[2, 2]",2,5,4,350,7,2,3,1873
6,53,"[4, 3]","[80, 20]","[2, 2]",2,5,4,400,8,2,3,2417
6,54,"[1, 2]","[20, 80]","[1, 1]",2,5,1,100,2,1,2,1575
6,55,"[4, 3]","[60, 30]","[2, 2]",2,5,4,300,6,2,3,1959
6,56,"[2, 1]","[80, 30]","[1, 2]",2,1,2,80,8,2,1,3317
6,57,"[1, 2]","[40, 70]","[1, 2]",2,5,2,350,7,2,2,1659
6,58,"[2, 1]","[90, 30]","[1, 2]",2,5,2,450,9,2,1,2660
6,59,"[1, 2]","[30, 60]","[1, 2]",2,5,2,300,6,2,2,1851
6,60,"[2, 1]","[50, 40]","[1, 2]",2,1,2,50,5,2,1,1664
6,61,"[2, 1]","[20, 60]","[1, 2]",2,1,2,20,2,2,2,1502
6,62,"[2, 1]","[10, 90]","[1, 2]",2,5,2,50,1,2,2,1846
6,63,"[1, 2]","[80, 0]","[1, 1]",2,1,1,80,8,1,1,2441
6,64,"[1, 2]","[90, 40]","[1, 1]",2,1,1,90,9,1,1,2368
6,65,"[3, 4]","[80, 50]","[2, 1]",2,5,3,400,8,1,3,2104
6,66,"[4, 3]","[50, 60]","[2, 1]",2,1,3,60,6,1,4,1574
6,67,"[4, 3]","[50, 60]","[2, 1]",2,5,3,300,6,1,4,1560
6,68,"[3, 4]","[80, 80]","[2, 1]",2,5,3,400,8,1,3,1895
6,69,"[2, 1]","[80, 80]","[1, 1]",2,1,1,80,8,1,2,2689
6,70,"[1, 2]","[80, 70]","[1, 1]",2,1,1,80,8,1,1,2016
6,71,"[1, 2]","[60, 80]","[1, 1]",2,1,1,60,6,1,2,4572
6,72,"[4, 3]","[80, 50]","[2, 1]",2,5,3,250,5,1,3,3794
6,73,"[3, 4]","[60, 80]","[2, 2]",2,1,4,80,8,2,4,3010
6,74,"[2, 1]","[80, 80]","[1, 1]",2,1,1,80,8,1,2,2125
6,75,"[1, 2]","[90, 40]","[1, 1]",2,5,1,450,9,1,1,2410
6,76,"[2, 1]","[20, 80]","[1, 2]",2,1,2,20,2,2,2,1641
6,77,"[1, 2]","[80, 10]","[1, 2]",2,1,2,10,1,2,1,1840
6,78,"[1, 2]","[30, 0]","[1, 1]",2,1,1,30,3,1,1,1763
6,79,"[3, 4]","[0, 10]","[2, 2]",2,5,4,50,1,2,4,1878
6,80,"[3, 4]","[0, 40]","[2, 2]",2,5,4,200,4,2,4,2685
7,1,"[3, 4]","[20, 60]","[2, 2]",1,5,4,300,6,2,4,8168
7,2,"[2, 1]","[70, 10]","[1, 2]",1,5,2,350,7,2,1,2623
7,3,"[2, 1]","[60, 20]","[1, 2]",1,1,2,60,6,2,1,2393
7,4,"[4, 3]","[40, 30]","[2, 2]",1,5,4,200,4,2,3,2341
7,5,"[2, 1]","[40, 30]","[1, 2]",1,1,2,40,4,2,1,1892
7,6,"[4, 3]","[50, 60]","[2, 2]",1,1,4,50,5,2,4,1823
7,7,"[1, 2]","[60, 20]","[1, 2]",1,1,2,20,2,2,1,2209
7,8,"[1, 2]","[30, 30]","[1, 1]",1,1,1,30,3,1,1,1900
7,9,"[2, 1]","[30, 20]","[1, 1]",1,5,1,100,2,1,1,1891
7,10,"[4, 3]","[30, 0]","[2, 2]",1,1,4,30,3,2,3,1908
7,11,"[1, 2]","[0, 60]","[1, 2]",1,5,2,300,6,2,2,1941
7,12,"[1, 2]","[40, 80]","[1, 2]",1,5,2,400,8,2,2,2139
7,13,"[4, 3]","[60, 60]","[2, 2]",1,5,4,300,6,2,4,1708
7,14,"[4, 3]","[40, 90]","[2, 2]",1,5,4,200,4,2,4,2125
7,15,"[3, 4]","[60, 80]","[2, 2]",1,1,4,80,8,2,4,1907
7,16,"[2, 1]","[70, 70]","[1, 2]",1,1,2,70,7,2,2,1890
7,17,"[2, 1]","[70, 70]","[1, 2]",1,5,2,350,7,2,2,3407
7,18,"[3, 4]","[30, 60]","[2, 2]",1,1,4,60,6,2,4,2075
7,19,"[1, 2]","[40, 60]","[1, 2]",1,5,2,300,6,2,2,2808
7,20,"[1, 2]","[10, 50]","[1, 2]",1,5,2,250,5,2,2,4691
7,21,"[4, 3]","[50, 10]","[2, 2]",1,1,4,50,5,2,3,3157
7,22,"[3, 4]","[20, 60]","[2, 2]",1,5,4,300,6,2,4,19052
7,23,"[1, 2]","[50, 30]","[1, 2]",1,5,2,150,3,2,1,4391
7,24,"[4, 3]","[60, 60]","[2, 2]",1,5,4,300,6,2,4,4071
7,25,"[1, 2]","[70, 70]","[1, 2]",1,5,2,350,7,2,1,7258
7,26,"[3, 4]","[60, 70]","[2, 2]",1,5,4,350,7,2,4,1858
7,27,"[2, 1]","[70, 40]","[1, 2]",1,5,2,350,7,2,1,3360
7,28,"[1, 2]","[30, 60]","[1, 2]",1,5,2,300,6,2,2,1993
7,29,"[4, 3]","[60, 60]","[2, 2]",1,5,4,300,6,2,4,2991
7,30,"[1, 2]","[70, 70]","[1, 2]",1,1,2,70,7,2,1,2023
7,31,"[1, 2]","[50, 30]","[1, 2]",1,1,2,30,3,2,1,1626
7,32,"[3, 4]","[20, 40]","[2, 2]",1,5,4,200,4,2,4,1941
7,33,"[1, 2]","[10, 60]","[1, 2]",1,5,2,300,6,2,2,2491
7,34,"[2, 1]","[30, 0]","[1, 2]",1,1,2,30,3,2,1,1621
7,35,"[4, 3]","[50, 0]","[2, 2]",1,1,4,50,5,2,3,1975
7,36,"[1, 2]","[10, 50]","[1, 2]",1,1,2,50,5,2,2,1824
7,37,"[1, 2]","[0, 80]","[1, 2]",1,1,2,80,8,2,2,1558
7,38,"[2, 1]","[70, 20]","[1, 2]",1,1,2,70,7,2,1,2476
7,39,"[2, 1]","[50, 10]","[1, 2]",1,1,2,50,5,2,1,2158
7,40,"[2, 1]","[30, 20]","[1, 2]",1,1,2,30,3,2,1,2125
7,41,"[1, 2]","[10, 30]","[1, 2]",2,1,2,30,3,2,2,11138
7,42,"[3, 4]","[0, 20]","[2, 2]",2,5,4,100,2,2,4,2191
7,43,"[4, 3]","[10, 0]","[2, 1]",2,1,3,0,0,1,3,2091
7,44,"[1, 2]","[30, 20]","[1, 2]",2,5,2,100,2,2,1,2542
7,45,"[2, 1]","[40, 10]","[1, 2]",2,5,2,200,4,2,1,3642
7,46,"[3, 4]","[0, 30]","[2, 2]",2,5,4,150,3,2,4,2461
7,47,"[3, 4]","[30, 40]","[2, 2]",2,5,4,200,4,2,4,2092
7,48,"[4, 3]","[20, 20]","[2, 2]",2,1,4,20,2,2,4,1791
7,49,"[4, 3]","[30, 10]","[2, 1]",2,5,3,50,1,1,3,2258
7,50,"[2, 1]","[30, 30]","[1, 2]",2,5,2,150,3,2,2,6343
7,51,"[3, 4]","[20, 40]","[2, 2]",2,1,4,40,4,2,4,2092
7,52,"[2, 1]","[30, 30]","[1, 2]",2,1,2,30,3,2,2,2208
7,53,"[1, 2]","[60, 20]","[1, 2]",2,1,2,20,2,2,1,2041
7,54,"[1, 2]","[80, 40]","[1, 2]",2,5,2,200,4,2,1,1692
7,55,"[3, 4]","[80, 40]","[2, 2]",2,1,4,40,4,2,3,1808
7,56,"[2, 1]","[0, 80]","[1, 2]",2,1,2,0,0,2,2,2073
7,57,"[4, 3]","[0, 80]","[2, 1]",2,1,3,80,8,1,4,2241
7,58,"[4, 3]","[20, 90]","[2, 1]",2,5,3,450,9,1,4,1908
7,59,"[2, 1]","[30, 60]","[1, 1]",2,1,1,60,6,1,2,2209
7,60,"[3, 4]","[70, 50]","[2, 1]",2,5,3,350,7,1,3,1758
7,61,"[4, 3]","[80, 60]","[2, 1]",2,5,3,300,6,1,3,1961
7,62,"[3, 4]","[50, 50]","[2, 1]",2,5,3,250,5,1,3,1611
7,63,"[2, 1]","[50, 50]","[1, 1]",2,5,1,250,5,1,2,4225
7,64,"[1, 2]","[60, 50]","[1, 1]",2,1,1,60,6,1,1,1693
7,65,"[3, 4]","[40, 20]","[2, 1]",2,1,3,40,4,1,3,1992
7,66,"[4, 3]","[10, 30]","[2, 1]",2,1,3,30,3,1,4,2009
7,67,"[1, 2]","[40, 10]","[1, 1]",2,1,1,40,4,1,1,2592
7,68,"[4, 3]","[20, 0]","[2, 1]",2,5,3,0,0,1,3,1759
7,69,"[2, 1]","[50, 20]","[1, 2]",2,1,2,50,5,2,1,2110
7,70,"[3, 4]","[20, 50]","[2, 2]",2,5,4,250,5,2,4,2158
7,71,"[2, 1]","[60, 0]","[1, 2]",2,1,2,60,6,2,1,2875
7,72,"[4, 3]","[60, 0]","[2, 2]",2,5,4,300,6,2,3,2267
7,73,"[3, 4]","[10, 70]","[2, 2]",2,1,4,70,7,2,4,1775
7,74,"[1, 2]","[40, 70]","[1, 2]",2,1,2,70,7,2,2,2359
7,75,"[2, 1]","[70, 60]","[1, 2]",2,5,2,350,7,2,1,1875
7,76,"[2, 1]","[60, 70]","[1, 2]",2,5,2,300,6,2,2,1789
7,77,"[3, 4]","[70, 50]","[2, 2]",2,1,4,50,5,2,3,2441
7,78,"[3, 4]","[90, 60]","[2, 2]",2,1,4,60,6,2,3,1559
7,79,"[3, 4]","[60, 60]","[2, 2]",2,1,4,60,6,2,3,1654
7,80,"[4, 3]","[70, 60]","[2, 2]",2,5,4,350,7,2,3,2011
8,1,"[3, 4]","[10, 70]","[2, 1]",1,1,3,10,1,1,4,3615
8,2,"[2, 1]","[50, 20]","[1, 2]",1,1,2,50,5,2,1,2042
8,3,"[1, 2]","[40, 40]","[1, 2]",1,1,2,40,4,2,1,1689
8,4,"[2, 1]","[70, 40]","[1, 2]",1,5,2,350,7,2,1,2041
8,5,"[4, 3]","[70, 30]","[2, 2]",1,1,4,70,7,2,3,1758
8,6,"[3, 4]","[40, 70]","[2, 2]",1,1,4,70,7,2,4,1575
8,7,"[3, 4]","[50, 60]","[2, 2]",1,5,4,300,6,2,4,1659
8,8,"[2, 1]","[90, 50]","[1, 2]",1,1,2,90,9,2,1,1659
8,9,"[1, 2]","[90, 90]","[1, 2]",1,5,2,450,9,2,1,1658
8,10,"[2, 1]","[90, 70]","[1, 2]",1,5,2,450,9,2,1,1592
8,11,"[4, 3]","[80, 60]","[2, 2]",1,1,4,80,8,2,3,1625
8,12,"[3, 4]","[20, 50]","[2, 2]",1,5,4,250,5,2,4,1592
8,13,"[2, 1]","[40, 20]","[1, 2]",1,5,2,200,4,2,1,1559
8,14,"[2, 1]","[0, 50]","[1, 1]",1,1,1,50,5,1,2,1592
8,15,"[2, 1]","[10, 30]","[1, 1]",1,1,1,30,3,1,2,1559
8,16,"[4, 3]","[0, 40]","[2, 2]",1,5,4,0,0,2,4,1843
8,17,"[4, 3]","[50, 20]","[2, 1]",1,1,3,20,2,1,3,1676
8,18,"[4, 3]","[60, 10]","[2, 2]",1,5,4,300,6,2,3,3492
8,19,"[3, 4]","[10, 30]","[2, 2]",1,1,4,30,3,2,4,1542
8,20,"[1, 2]","[30, 40]","[1, 2]",1,5,2,200,4,2,2,1526
8,21,"[1, 2]","[30, 40]","[1, 2]",1,5,2,200,4,2,2,1541
8,22,"[1, 2]","[30, 40]","[1, 2]",1,1,2,40,4,2,2,1775
8,23,"[4, 3]","[30, 50]","[2, 2]",1,5,4,150,3,2,4,1659
8,24,"[2, 1]","[10, 80]","[1, 2]",1,1,2,10,1,2,2,2142
8,25,"[1, 2]","[70, 10]","[1, 1]",1,1,1,70,7,1,1,1509
8,26,"[2, 1]","[20, 60]","[1, 1]",1,1,1,60,6,1,2,1492
8,27,"[4, 3]","[20, 80]","[2, 1]",1,5,3,400,8,1,4,1842
8,28,"[4, 3]","[20, 80]","[2, 1]",1,1,3,80,8,1,4,1541
8,29,"[1, 2]","[70, 10]","[1, 1]",1,1,1,70,7,1,1,1758
8,30,"[3, 4]","[90, 10]","[2, 1]",1,5,3,450,9,1,3,1626
8,31,"[4, 3]","[20, 80]","[2, 1]",1,5,3,400,8,1,4,1575
8,32,"[4, 3]","[10, 80]","[2, 1]",1,1,3,80,8,1,4,1626
8,33,"[2, 1]","[20, 70]","[1, 1]",1,1,1,70,7,1,2,2259
8,34,"[3, 4]","[50, 40]","[2, 1]",1,5,3,250,5,1,3,1942
8,35,"[3, 4]","[30, 60]","[2, 1]",1,1,3,30,3,1,4,1608
8,36,"[1, 2]","[60, 30]","[1, 1]",1,1,1,60,6,1,1,2125
8,37,"[2, 1]","[40, 80]","[1, 1]",1,1,1,80,8,1,2,2092
8,38,"[1, 2]","[80, 40]","[1, 1]",1,5,1,400,8,1,1,1976
8,39,"[4, 3]","[60, 80]","[2, 1]",1,5,3,400,8,1,4,1592
8,40,"[2, 1]","[50, 70]","[1, 1]",1,5,1,350,7,1,2,1792
8,41,"[1, 2]","[50, 80]","[1, 1]",2,1,1,50,5,1,2,8604
8,42,"[2, 1]","[80, 70]","[1, 1]",2,1,1,70,7,1,1,1542
8,43,"[1, 2]","[70, 50]","[1, 1]",2,5,1,350,7,1,1,1675
8,44,"[3, 4]","[70, 70]","[2, 1]",2,5,3,350,7,1,3,1825
8,45,"[1, 2]","[80, 80]","[1, 1]",2,5,1,400,8,1,1,1842
8,46,"[4, 3]","[90, 80]","[2, 1]",2,1,3,80,8,1,3,1575
8,47,"[1, 2]","[70, 80]","[1, 1]",2,5,1,350,7,1,2,1792
8,48,"[1, 2]","[80, 70]","[1, 1]",2,1,1,80,8,1,1,1792
8,49,"[2, 1]","[80, 70]","[1, 1]",2,5,1,350,7,1,1,1792
8,50,"[2, 1]","[50, 70]","[1, 1]",2,5,1,350,7,1,2,1524
8,51,"[4, 3]","[50, 30]","[2, 1]",2,1,3,30,3,1,3,1608
8,52,"[4, 3]","[40, 20]","[2, 1]",2,1,3,20,2,1,3,1592
8,53,"[2, 1]","[40, 20]","[1, 2]",2,5,2,200,4,2,1,1592
8,54,"[3, 4]","[0, 40]","[2, 2]",2,1,4,40,4,2,4,1759
8,55,"[2, 1]","[20, 40]","[1, 2]",2,5,2,100,2,2,2,1842
8,56,"[3, 4]","[30, 30]","[2, 1]",2,1,3,30,3,1,3,1842
8,57,"[2, 1]","[60, 40]","[1, 1]",2,5,1,200,4,1,1,2309
8,58,"[3, 4]","[70, 70]","[2, 1]",2,1,3,70,7,1,3,2825
8,59,"[1, 2]","[50, 80]","[1, 1]",2,1,1,50,5,1,2,1775
8,60,"[4, 3]","[80, 80]","[2, 1]",2,5,3,400,8,1,4,1875
8,61,"[1, 2]","[80, 50]","[1, 1]",2,5,1,400,8,1,1,1758
8,62,"[1, 2]","[50, 40]","[1, 1]",2,1,1,50,5,1,1,1859
8,63,"[1, 2]","[60, 30]","[1, 1]",2,5,1,300,6,1,1,1809
8,64,"[4, 3]","[60, 30]","[2, 1]",2,5,3,150,3,1,3,1709
8,65,"[2, 1]","[80, 20]","[1, 1]",2,1,1,20,2,1,1,2858
8,66,"[3, 4]","[30, 50]","[2, 2]",2,5,4,250,5,2,4,1758
8,67,"[1, 2]","[30, 60]","[1, 2]",2,5,2,300,6,2,2,1708
8,68,"[2, 1]","[50, 20]","[1, 2]",2,1,2,50,5,2,1,1859
8,69,"[3, 4]","[30, 30]","[2, 2]",2,1,4,30,3,2,3,1726
8,70,"[2, 1]","[60, 20]","[1, 2]",2,1,2,60,6,2,1,1875
8,71,"[2, 1]","[70, 10]","[1, 2]",2,5,2,350,7,2,1,1792
8,72,"[2, 1]","[40, 0]","[1, 2]",2,1,2,40,4,2,1,1693
8,73,"[3, 4]","[10, 30]","[2, 2]",2,1,4,30,3,2,4,1858
8,74,"[4, 3]","[20, 10]","[2, 1]",2,5,3,50,1,1,3,2709
8,75,"[1, 2]","[30, 20]","[1, 2]",2,5,2,100,2,2,1,2309
8,76,"[2, 1]","[10, 40]","[1, 2]",2,5,2,50,1,2,2,1942
8,77,"[3, 4]","[60, 10]","[2, 1]",2,1,3,60,6,1,3,1842
8,78,"[1, 2]","[90, 0]","[1, 1]",2,5,1,450,9,1,1,2392
8,79,"[4, 3]","[10, 80]","[2, 1]",2,5,3,400,8,1,4,1941
8,80,"[2, 1]","[10, 80]","[1, 1]",2,5,1,400,8,1,2,1908
8,1,"[2, 1]","[10, 90]","[1, 1]",1,5,1,450,9,1,2,4253
8,2,"[1, 2]","[80, 20]","[1, 1]",1,1,1,80,8,1,1,1559
8,3,"[4, 3]","[80, 90]","[2, 1]",1,1,3,90,9,1,4,1693
8,4,"[1, 2]","[60, 70]","[1, 1]",1,5,1,300,6,1,2,1760
8,5,"[4, 3]","[80, 70]","[2, 1]",1,1,3,70,7,1,3,1542
8,6,"[1, 2]","[70, 30]","[1, 1]",1,1,1,70,7,1,1,1643
8,7,"[1, 2]","[60, 0]","[1, 1]",1,1,1,60,6,1,1,1726
8,8,"[1, 2]","[70, 0]","[1, 1]",1,1,1,70,7,1,1,1809
8,9,"[1, 2]","[90, 20]","[1, 1]",1,5,1,450,9,1,1,1604
8,10,"[2, 1]","[0, 70]","[1, 1]",1,5,1,350,7,1,2,1559
8,11,"[2, 1]","[0, 80]","[1, 1]",1,5,1,400,8,1,2,1625
8,12,"[2, 1]","[30, 80]","[1, 1]",1,5,1,400,8,1,2,1576
8,13,"[2, 1]","[20, 80]","[1, 1]",1,5,1,400,8,1,2,1742
8,14,"[2, 1]","[50, 50]","[1, 1]",1,5,1,250,5,1,2,1571
8,15,"[1, 2]","[60, 50]","[1, 1]",1,5,1,300,6,1,1,1642
8,16,"[1, 2]","[60, 40]","[1, 1]",1,5,1,300,6,1,1,1739
8,17,"[3, 4]","[30, 0]","[2, 1]",1,1,3,30,3,1,3,2025
8,18,"[1, 2]","[0, 10]","[1, 1]",1,1,1,0,0,1,2,2509
8,19,"[4, 3]","[10, 10]","[2, 2]",1,5,4,50,1,2,4,1759
8,20,"[2, 1]","[0, 10]","[1, 1]",1,5,1,50,1,1,2,1675
8,21,"[3, 4]","[20, 20]","[2, 1]",1,5,3,100,2,1,3,4293
8,22,"[3, 4]","[10, 10]","[2, 2]",1,5,4,50,1,2,3,2375
8,23,"[4, 3]","[0, 20]","[2, 1]",1,1,3,20,2,1,4,1676
8,24,"[4, 3]","[0, 20]","[2, 2]",1,5,4,0,0,2,4,1942
8,25,"[3, 4]","[30, 10]","[2, 1]",1,1,3,30,3,1,3,1776
8,26,"[1, 2]","[40, 10]","[1, 1]",1,5,1,200,4,1,1,1560
8,27,"[2, 1]","[50, 40]","[1, 1]",1,1,1,40,4,1,1,1676
8,28,"[1, 2]","[40, 40]","[1, 1]",1,5,1,200,4,1,1,1709
8,29,"[1, 2]","[70, 60]","[1, 1]",1,5,1,350,7,1,1,1860
8,30,"[4, 3]","[80, 80]","[2, 1]",1,1,3,80,8,1,4,1709
8,31,"[2, 1]","[70, 90]","[1, 1]",1,5,1,450,9,1,2,1775
8,32,"[3, 4]","[90, 60]","[2, 1]",1,5,3,450,9,1,3,1659
8,33,"[3, 4]","[70, 90]","[2, 1]",1,5,3,350,7,1,4,1625
8,34,"[3, 4]","[60, 70]","[2, 1]",1,1,3,60,6,1,4,1693
8,35,"[2, 1]","[50, 50]","[1, 1]",1,1,1,50,5,1,2,1655
8,36,"[1, 2]","[30, 50]","[1, 1]",1,1,1,30,3,1,2,1859
8,37,"[3, 4]","[0, 20]","[2, 1]",1,5,3,0,0,1,4,1759
8,38,"[1, 2]","[30, 30]","[1, 2]",1,1,2,30,3,2,1,1704
8,39,"[3, 4]","[10, 40]","[2, 2]",1,1,4,40,4,2,4,1659
8,40,"[3, 4]","[20, 20]","[2, 2]",1,5,4,100,2,2,3,1625
8,41,"[3, 4]","[0, 10]","[2, 1]",2,1,3,0,0,1,4,2853
8,42,"[1, 2]","[10, 30]","[1, 2]",2,1,2,30,3,2,2,1505
8,43,"[2, 1]","[10, 10]","[1, 2]",2,1,2,10,1,2,2,1638
8,44,"[3, 4]","[20, 30]","[2, 1]",2,1,3,20,2,1,4,1788
8,45,"[1, 2]","[10, 50]","[1, 1]",2,5,1,50,1,1,2,1659
8,46,"[3, 4]","[10, 10]","[2, 2]",2,5,4,50,1,2,3,1725
8,47,"[3, 4]","[10, 30]","[2, 1]",2,1,3,10,1,1,4,2609
8,48,"[4, 3]","[20, 30]","[2, 1]",2,1,3,30,3,1,4,2026
8,49,"[3, 4]","[40, 20]","[2, 1]",2,1,3,40,4,1,3,1659
8,50,"[4, 3]","[40, 40]","[2, 1]",2,5,3,200,4,1,4,1659
8,51,"[3, 4]","[40, 60]","[2, 1]",2,5,3,200,4,1,4,1692
8,52,"[3, 4]","[50, 50]","[2, 1]",2,5,3,250,5,1,3,1571
8,53,"[1, 2]","[60, 50]","[1, 1]",2,1,1,60,6,1,1,1675
8,54,"[4, 3]","[50, 40]","[2, 1]",2,1,3,40,4,1,3,1709
8,55,"[2, 1]","[40, 40]","[1, 1]",2,5,1,200,4,1,2,1843
8,56,"[3, 4]","[40, 20]","[2, 1]",2,1,3,40,4,1,3,1775
8,57,"[2, 1]","[10, 80]","[1, 1]",2,5,1,400,8,1,2,1593
8,58,"[2, 1]","[30, 50]","[1, 1]",2,1,1,50,5,1,2,1543
8,59,"[4, 3]","[20, 30]","[2, 1]",2,1,3,30,3,1,4,1493
8,60,"[3, 4]","[20, 40]","[2, 1]",2,1,3,20,2,1,4,1925
8,61,"[1, 2]","[20, 50]","[1, 1]",2,1,1,20,2,1,2,2126
8,62,"[3, 4]","[20, 10]","[2, 1]",2,5,3,100,2,1,3,1876
8,63,"[4, 3]","[30, 20]","[2, 2]",2,5,4,150,3,2,3,1726
8,64,"[3, 4]","[60, 40]","[2, 2]",2,1,4,40,4,2,3,1559
8,65,"[4, 3]","[0, 90]","[2, 2]",2,5,4,0,0,2,4,1838
8,66,"[2, 1]","[10, 80]","[1, 1]",2,1,1,80,8,1,2,1742
8,67,"[2, 1]","[0, 80]","[1, 1]",2,1,1,80,8,1,2,1609
8,68,"[1, 2]","[50, 10]","[1, 1]",2,5,1,250,5,1,1,1692
8,69,"[3, 4]","[40, 0]","[2, 1]",2,5,3,200,4,1,3,1642
8,70,"[4, 3]","[10, 40]","[2, 1]",2,1,3,40,4,1,4,1626
8,71,"[1, 2]","[80, 10]","[1, 1]",2,5,1,400,8,1,1,1793
8,72,"[2, 1]","[50, 70]","[1, 1]",2,1,1,70,7,1,2,1742
8,73,"[2, 1]","[40, 60]","[1, 1]",2,5,1,300,6,1,2,1759
8,74,"[2, 1]","[50, 20]","[1, 1]",2,5,1,100,2,1,1,1709
8,75,"[2, 1]","[50, 10]","[1, 1]",2,1,1,10,1,1,1,1692
8,76,"[1, 2]","[10, 60]","[1, 2]",2,1,2,60,6,2,2,1676
8,77,"[3, 4]","[20, 60]","[2, 2]",2,1,4,60,6,2,4,1576
8,78,"[1, 2]","[10, 30]","[1, 2]",2,1,2,30,3,2,2,1542
8,79,"[2, 1]","[10, 10]","[1, 2]",2,5,2,50,1,2,2,1909
8,80,"[2, 1]","[10, 70]","[1, 1]",2,5,1,350,7,1,2,2159
9,1,"[2, 1]","[40, 70]","[1, 2]",1,1,2,40,4,2,2,17357
9,2,"[3, 4]","[80, 40]","[2, 2]",1,5,4,200,4,2,3,5964
9,3,"[3, 4]","[80, 60]","[2, 2]",1,1,4,60,6,2,3,4419
9,4,"[2, 1]","[30, 90]","[1, 2]",1,5,2,150,3,2,2,3494
9,5,"[1, 2]","[70, 30]","[1, 1]",1,1,1,70,7,1,1,2985
9,6,"[4, 3]","[10, 80]","[2, 1]",1,1,3,80,8,1,4,4062
9,7,"[4, 3]","[0, 80]","[2, 1]",1,5,3,400,8,1,4,2102
9,8,"[4, 3]","[20, 40]","[2, 1]",1,1,3,40,4,1,4,1894
9,9,"[4, 3]","[50, 0]","[2, 2]",1,1,4,50,5,2,3,1562
9,10,"[3, 4]","[0, 60]","[2, 2]",1,1,4,60,6,2,4,1710
9,11,"[4, 3]","[80, 0]","[2, 2]",1,1,4,80,8,2,3,1894
9,12,"[4, 3]","[70, 30]","[2, 2]",1,5,4,350,7,2,3,1610
9,13,"[2, 1]","[90, 10]","[1, 2]",1,1,2,90,9,2,1,2077
9,14,"[4, 3]","[90, 60]","[2, 2]",1,1,4,90,9,2,3,1584
9,15,"[2, 1]","[80, 40]","[1, 2]",1,5,2,400,8,2,1,2469
9,16,"[1, 2]","[20, 60]","[1, 2]",1,5,2,300,6,2,2,2135
9,17,"[1, 2]","[30, 60]","[1, 2]",1,5,2,300,6,2,2,2944
9,18,"[1, 2]","[40, 50]","[1, 2]",1,5,2,250,5,2,2,2445
9,19,"[1, 2]","[50, 60]","[1, 2]",1,1,2,60,6,2,2,2011
9,20,"[3, 4]","[60, 80]","[2, 1]",1,5,3,300,6,1,4,4385
9,21,"[2, 1]","[50, 80]","[1, 1]",1,1,1,80,8,1,2,2667
9,22,"[1, 2]","[60, 30]","[1, 1]",1,1,1,60,6,1,1,1678
9,23,"[2, 1]","[50, 20]","[1, 1]",1,5,1,100,2,1,1,1860
9,24,"[2, 1]","[10, 0]","[1, 2]",1,5,2,50,1,2,1,1669
9,25,"[1, 2]","[0, 50]","[1, 1]",1,5,1,0,0,1,2,2243
9,26,"[2, 1]","[60, 20]","[1, 2]",1,1,2,60,6,2,1,1871
9,27,"[2, 1]","[40, 0]","[1, 2]",1,1,2,40,4,2,1,1516
9,28,"[2, 1]","[70, 20]","[1, 2]",1,5,2,350,7,2,1,2003
9,29,"[1, 2]","[40, 80]","[1, 2]",1,5,2,400,8,2,2,1685
9,30,"[1, 2]","[20, 80]","[1, 2]",1,5,2,400,8,2,2,1560
9,31,"[4, 3]","[70, 40]","[2, 2]",1,5,4,350,7,2,3,1922
9,32,"[3, 4]","[50, 70]","[2, 2]",1,5,4,350,7,2,4,1727
9,33,"[3, 4]","[60, 60]","[2, 2]",1,1,4,60,6,2,3,1735
9,34,"[2, 1]","[60, 80]","[1, 2]",1,5,2,300,6,2,2,3236
9,35,"[3, 4]","[90, 60]","[2, 2]",1,5,4,300,6,2,3,1968
9,36,"[1, 2]","[80, 50]","[1, 2]",1,5,2,250,5,2,1,1508
9,37,"[2, 1]","[40, 70]","[1, 2]",1,1,2,40,4,2,2,2503
9,38,"[2, 1]","[0, 80]","[1, 1]",1,5,1,400,8,1,2,3184
9,39,"[4, 3]","[10, 80]","[2, 1]",1,1,3,80,8,1,4,2040
9,40,"[2, 1]","[0, 90]","[1, 1]",1,5,1,450,9,1,2,2718
9,41,"[3, 4]","[80, 10]","[2, 1]",2,1,3,80,8,1,3,5450
9,42,"[4, 3]","[10, 70]","[2, 1]",2,5,3,350,7,1,4,1929
9,43,"[2, 1]","[20, 40]","[1, 1]",2,1,1,40,4,1,2,2251
9,44,"[1, 2]","[60, 20]","[1, 1]",2,1,1,60,6,1,1,2603
9,45,"[4, 3]","[0, 50]","[2, 1]",2,5,3,250,5,1,4,2803
9,46,"[4, 3]","[40, 30]","[2, 1]",2,5,3,150,3,1,3,1719
9,47,"[1, 2]","[30, 20]","[1, 2]",2,5,2,100,2,2,1,1751
9,48,"[1, 2]","[10, 10]","[1, 1]",2,5,1,50,1,1,1,1708
9,49,"[3, 4]","[10, 50]","[2, 2]",2,1,4,50,5,2,4,2269
9,50,"[4, 3]","[30, 10]","[2, 2]",2,5,4,150,3,2,3,2635
9,51,"[2, 1]","[10, 0]","[1, 2]",2,1,2,10,1,2,1,1710
9,52,"[1, 2]","[30, 50]","[1, 1]",2,5,1,150,3,1,2,2029
9,53,"[2, 1]","[40, 60]","[1, 1]",2,1,1,60,6,1,2,1835
9,54,"[2, 1]","[40, 80]","[1, 1]",2,5,1,400,8,1,2,1527
9,55,"[3, 4]","[80, 20]","[2, 1]",2,1,3,80,8,1,3,2194
9,56,"[2, 1]","[0, 80]","[1, 1]",2,1,1,80,8,1,2,1919
9,57,"[4, 3]","[10, 80]","[2, 1]",2,5,3,400,8,1,4,3118
9,58,"[3, 4]","[70, 20]","[2, 1]",2,1,3,70,7,1,3,1968
9,59,"[1, 2]","[80, 10]","[1, 1]",2,5,1,400,8,1,1,2485
9,60,"[2, 1]","[0, 90]","[1, 1]",2,5,1,450,9,1,2,2036
9,61,"[3, 4]","[70, 40]","[2, 1]",2,5,3,350,7,1,3,1951
9,62,"[3, 4]","[60, 60]","[2, 1]",2,1,3,60,6,1,3,1669
9,63,"[3, 4]","[90, 70]","[2, 1]",2,5,3,450,9,1,3,3502
9,64,"[3, 4]","[60, 70]","[2, 1]",2,1,3,60,6,1,4,1760
9,65,"[3, 4]","[80, 80]","[2, 1]",2,5,3,400,8,1,3,1752
9,66,"[1, 2]","[70, 80]","[1, 1]",2,5,1,350,7,1,2,2303
9,67,"[1, 2]","[90, 70]","[1, 1]",2,5,1,450,9,1,1,1977
9,68,"[2, 1]","[50, 80]","[1, 1]",2,1,1,80,8,1,2,2008
9,69,"[3, 4]","[90, 60]","[2, 1]",2,1,3,90,9,1,3,2067
9,70,"[2, 1]","[30, 80]","[1, 1]",2,1,1,80,8,1,2,2004
9,71,"[3, 4]","[80, 20]","[2, 1]",2,1,3,80,8,1,3,1743
9,72,"[4, 3]","[50, 80]","[2, 1]",2,1,3,80,8,1,4,2001
9,73,"[1, 2]","[90, 30]","[1, 1]",2,1,1,90,9,1,1,2670
9,74,"[2, 1]","[20, 50]","[1, 2]",2,1,2,20,2,2,2,1727
9,75,"[1, 2]","[40, 30]","[1, 1]",2,1,1,40,4,1,1,1928
9,76,"[2, 1]","[30, 10]","[1, 1]",2,1,1,10,1,1,1,1687
9,77,"[4, 3]","[70, 10]","[2, 2]",2,5,4,350,7,2,3,2360
9,78,"[1, 2]","[40, 80]","[1, 2]",2,1,2,80,8,2,2,1877
9,79,"[4, 3]","[90, 20]","[2, 2]",2,5,4,450,9,2,3,1994
9,80,"[1, 2]","[10, 80]","[1, 2]",2,1,2,80,8,2,2,1752
10,1,"[4, 3]","[70, 20]","[2, 1]",1,5,3,100,2,1,3,6973
10,2,"[1, 2]","[10, 60]","[1, 1]",1,1,1,10,1,1,2,1846
10,3,"[2, 1]","[50, 0]","[1, 1]",1,5,1,0,0,1,1,1806
10,4,"[3, 4]","[30, 60]","[2, 1]",1,1,3,30,3,1,4,1871
10,5,"[1, 2]","[30, 40]","[1, 2]",1,1,2,40,4,2,2,4845
10,6,"[4, 3]","[80, 0]","[2, 1]",1,1,3,0,0,1,3,3468
10,7,"[1, 2]","[0, 80]","[1, 1]",1,1,1,0,0,1,2,2053
10,8,"[1, 2]","[20, 90]","[1, 2]",1,5,2,450,9,2,2,3167
10,9,"[2, 1]","[70, 0]","[1, 2]",1,1,2,70,7,2,1,2260
10,10,"[1, 2]","[50, 80]","[1, 2]",1,1,2,80,8,2,2,1564
10,11,"[1, 2]","[50, 90]","[1, 1]",1,1,1,50,5,1,2,1642
10,12,"[1, 2]","[40, 40]","[1, 2]",1,5,2,200,4,2,1,1604
10,13,"[3, 4]","[20, 90]","[2, 2]",1,1,4,90,9,2,4,1540
10,14,"[1, 2]","[40, 70]","[1, 1]",1,1,1,40,4,1,2,2599
10,15,"[3, 4]","[50, 80]","[2, 2]",1,5,4,400,8,2,4,2428
10,16,"[3, 4]","[0, 70]","[2, 1]",1,1,3,0,0,1,4,2028
10,17,"[1, 2]","[40, 90]","[1, 2]",1,5,2,450,9,2,2,1563
10,18,"[3, 4]","[60, 60]","[2, 2]",1,1,4,60,6,2,3,1593
10,19,"[2, 1]","[60, 80]","[1, 2]",1,1,2,60,6,2,2,1724
10,20,"[1, 2]","[70, 70]","[1, 2]",1,1,2,70,7,2,1,1670
10,21,"[1, 2]","[70, 70]","[1, 1]",1,1,1,70,7,1,1,1648
10,22,"[1, 2]","[70, 50]","[1, 1]",1,1,1,70,7,1,1,6071
10,23,"[1, 2]","[70, 20]","[1, 2]",1,1,2,20,2,2,1,3030
10,24,"[4, 3]","[30, 80]","[2, 2]",1,5,4,150,3,2,4,1974
10,25,"[2, 1]","[50, 90]","[1, 1]",1,1,1,90,9,1,2,1775
10,26,"[2, 1]","[70, 80]","[1, 2]",1,1,2,70,7,2,2,1523
10,27,"[3, 4]","[80, 60]","[2, 2]",1,1,4,60,6,2,3,2203
10,28,"[4, 3]","[20, 70]","[2, 2]",1,5,4,100,2,2,4,4389
10,29,"[4, 3]","[0, 50]","[2, 2]",1,1,4,0,0,2,4,1463
10,30,"[3, 4]","[60, 30]","[2, 1]",1,5,3,300,6,1,3,2700
10,31,"[2, 1]","[40, 60]","[1, 2]",1,5,2,200,4,2,2,1606
10,32,"[4, 3]","[50, 50]","[2, 2]",1,5,4,250,5,2,4,1512
10,33,"[4, 3]","[80, 60]","[2, 2]",1,1,4,80,8,2,3,1265
10,34,"[1, 2]","[30, 70]","[1, 1]",1,5,1,150,3,1,2,1269
10,35,"[3, 4]","[50, 70]","[2, 1]",1,5,3,250,5,1,4,1296
10,36,"[1, 2]","[40, 60]","[1, 1]",1,5,1,200,4,1,2,1504
10,37,"[2, 1]","[80, 60]","[1, 2]",1,1,2,80,8,2,1,1349
10,38,"[2, 1]","[80, 80]","[1, 1]",1,5,1,400,8,1,2,1686
10,39,"[1, 2]","[40, 60]","[1, 2]",1,5,2,300,6,2,2,2680
10,40,"[2, 1]","[70, 20]","[1, 1]",1,5,1,100,2,1,1,1979
10,41,"[1, 2]","[50, 70]","[1, 1]",2,1,1,50,5,1,2,1859
10,42,"[3, 4]","[50, 80]","[2, 2]",2,1,4,80,8,2,4,1584
10,43,"[4, 3]","[70, 40]","[2, 2]",2,1,4,70,7,2,3,1409
10,44,"[1, 2]","[0, 70]","[1, 1]",2,5,1,0,0,1,2,1483
10,45,"[4, 3]","[80, 0]","[2, 1]",2,5,3,0,0,1,3,1627
10,46,"[3, 4]","[10, 80]","[2, 1]",2,5,3,50,1,1,4,2041
10,47,"[2, 1]","[70, 10]","[1, 2]",2,5,2,350,7,2,1,1890
10,48,"[4, 3]","[60, 30]","[2, 1]",2,5,3,150,3,1,3,2823
10,49,"[4, 3]","[30, 30]","[2, 1]",2,5,3,150,3,1,4,1760
10,50,"[1, 2]","[10, 40]","[1, 2]",2,1,2,40,4,2,2,3193
10,51,"[1, 2]","[10, 40]","[1, 1]",2,5,1,50,1,1,2,1528
10,52,"[2, 1]","[30, 30]","[1, 2]",2,1,2,30,3,2,2,1747
10,53,"[3, 4]","[30, 10]","[2, 2]",2,1,4,10,1,2,3,1736
10,54,"[3, 4]","[40, 20]","[2, 1]",2,1,3,40,4,1,3,1483
10,55,"[2, 1]","[0, 10]","[1, 1]",2,5,1,50,1,1,2,1680
10,56,"[1, 2]","[0, 50]","[1, 1]",2,1,1,0,0,1,2,1436
10,57,"[2, 1]","[30, 30]","[1, 1]",2,5,1,150,3,1,2,1583
10,58,"[4, 3]","[30, 40]","[2, 1]",2,5,3,200,4,1,4,1600
10,59,"[1, 2]","[20, 20]","[1, 2]",2,1,2,20,2,2,1,1742
10,60,"[1, 2]","[30, 20]","[1, 1]",2,1,1,30,3,1,1,1641
10,61,"[1, 2]","[0, 80]","[1, 2]",2,1,2,80,8,2,2,1611
10,62,"[2, 1]","[70, 0]","[1, 2]",2,1,2,70,7,2,1,3477
10,63,"[4, 3]","[90, 50]","[2, 1]",2,5,3,250,5,1,3,1645
10,64,"[4, 3]","[50, 50]","[2, 1]",2,5,3,250,5,1,4,1573
10,65,"[3, 4]","[20, 40]","[2, 2]",2,5,4,200,4,2,4,1673
10,66,"[3, 4]","[20, 80]","[2, 2]",2,5,4,400,8,2,4,1645
10,67,"[1, 2]","[70, 80]","[1, 2]",2,1,2,80,8,2,2,1737
10,68,"[3, 4]","[40, 80]","[2, 1]",2,5,3,200,4,1,4,1537
10,69,"[4, 3]","[80, 80]","[2, 2]",2,5,4,400,8,2,4,1699
10,70,"[2, 1]","[60, 80]","[1, 2]",2,1,2,60,6,2,2,2107
10,71,"[3, 4]","[90, 50]","[2, 2]",2,5,4,250,5,2,3,1721
10,72,"[4, 3]","[70, 80]","[2, 2]",2,5,4,350,7,2,4,1684
10,73,"[1, 2]","[60, 70]","[1, 1]",2,5,1,300,6,1,2,2297
10,74,"[3, 4]","[70, 70]","[2, 2]",2,1,4,70,7,2,3,1733
10,75,"[2, 1]","[80, 50]","[1, 2]",2,1,2,80,8,2,1,1677
10,76,"[3, 4]","[60, 60]","[2, 2]",2,1,4,60,6,2,3,1705
10,77,"[2, 1]","[80, 90]","[1, 2]",2,5,2,400,8,2,2,1925
10,78,"[4, 3]","[80, 80]","[2, 2]",2,5,4,400,8,2,4,1651
10,79,"[4, 3]","[50, 60]","[2, 2]",2,5,4,250,5,2,4,1557
10,80,"[2, 1]","[80, 90]","[1, 2]",2,5,2,400,8,2,2,1652
11,1,"[3, 4]","[30, 50]","[2, 1]",1,5,3,150,3,1,4,15000
11,2,"[3, 4]","[30, 90]","[2, 1]",1,5,3,150,3,1,4,1571
11,3,"[1, 2]","[50, 80]","[1, 2]",1,1,2,80,8,2,2,1974
11,4,"[3, 4]","[70, 90]","[2, 1]",1,1,3,70,7,1,4,1637
11,5,"[1, 2]","[50, 90]","[1, 2]",1,5,2,450,9,2,2,1990
11,6,"[2, 1]","[80, 40]","[1, 2]",1,5,2,400,8,2,1,1975
11,7,"[2, 1]","[60, 40]","[1, 2]",1,1,2,60,6,2,1,1587
11,8,"[2, 1]","[70, 60]","[1, 2]",1,5,2,350,7,2,1,8600
11,9,"[2, 1]","[90, 60]","[1, 2]",1,1,2,90,9,2,1,4772
11,10,"[2, 1]","[80, 40]","[1, 2]",1,1,2,80,8,2,1,2688
11,11,"[4, 3]","[80, 40]","[2, 1]",1,5,3,200,4,1,3,2107
11,12,"[1, 2]","[50, 80]","[1, 2]",1,1,2,80,8,2,2,1740
11,13,"[1, 2]","[70, 60]","[1, 2]",1,1,2,60,6,2,1,8157
11,14,"[3, 4]","[80, 60]","[2, 1]",1,1,3,80,8,1,3,7241
11,15,"[3, 4]","[70, 40]","[2, 1]",1,1,3,70,7,1,3,4856
11,16,"[4, 3]","[50, 80]","[2, 1]",1,1,3,80,8,1,4,1690
11,17,"[3, 4]","[60, 30]","[2, 1]",1,5,3,300,6,1,3,5640
11,18,"[1, 2]","[60, 50]","[1, 2]",1,1,2,50,5,2,1,6957
11,19,"[3, 4]","[80, 20]","[2, 1]",1,5,3,400,8,1,3,3357
11,20,"[1, 2]","[80, 50]","[1, 2]",1,1,2,50,5,2,1,2472
11,21,"[2, 1]","[30, 80]","[1, 2]",1,5,2,150,3,2,2,5437
11,22,"[2, 1]","[20, 70]","[1, 2]",1,5,2,100,2,2,2,1705
11,23,"[1, 2]","[20, 10]","[1, 2]",1,1,2,10,1,2,1,5419
11,24,"[3, 4]","[30, 10]","[2, 1]",1,5,3,150,3,1,3,5557
11,25,"[4, 3]","[10, 70]","[2, 1]",1,1,3,70,7,1,4,1823
11,26,"[1, 2]","[80, 10]","[1, 2]",1,5,2,50,1,2,1,6440
11,27,"[4, 3]","[0, 60]","[2, 1]",1,1,3,60,6,1,4,6840
11,28,"[1, 2]","[60, 40]","[1, 2]",1,1,2,40,4,2,1,5992
11,29,"[2, 1]","[40, 60]","[1, 2]",1,5,2,200,4,2,2,2023
11,30,"[1, 2]","[70, 0]","[1, 2]",1,1,2,0,0,2,1,1590
11,31,"[3, 4]","[40, 30]","[2, 1]",1,1,3,40,4,1,3,3407
11,32,"[3, 4]","[40, 10]","[2, 1]",1,5,3,200,4,1,3,3756
11,33,"[1, 2]","[30, 50]","[1, 2]",1,5,2,250,5,2,2,2373
11,34,"[4, 3]","[40, 40]","[2, 1]",1,1,3,40,4,1,4,1790
11,35,"[2, 1]","[40, 50]","[1, 2]",1,1,2,40,4,2,2,2290
11,36,"[2, 1]","[50, 60]","[1, 2]",1,5,2,250,5,2,2,8258
11,37,"[1, 2]","[40, 50]","[1, 2]",1,1,2,50,5,2,2,11490
11,38,"[2, 1]","[50, 40]","[1, 2]",1,1,2,50,5,2,1,3272
11,39,"[4, 3]","[60, 30]","[2, 1]",1,5,3,150,3,1,3,8290
11,40,"[3, 4]","[40, 60]","[2, 1]",1,5,3,200,4,1,4,6374
11,41,"[2, 1]","[50, 40]","[1, 2]",2,1,2,50,5,2,1,3716
11,42,"[2, 1]","[10, 40]","[1, 1]",2,1,1,40,4,1,2,1659
11,43,"[3, 4]","[60, 40]","[2, 2]",2,5,4,200,4,2,3,1607
11,44,"[2, 1]","[30, 80]","[1, 2]",2,5,2,150,3,2,2,1506
11,45,"[3, 4]","[80, 30]","[2, 2]",2,5,4,150,3,2,3,1789
11,46,"[1, 2]","[80, 30]","[1, 1]",2,1,1,80,8,1,1,1757
11,47,"[3, 4]","[90, 40]","[2, 1]",2,5,3,450,9,1,3,1620
11,48,"[4, 3]","[50, 50]","[2, 2]",2,1,4,50,5,2,4,1755
11,49,"[4, 3]","[50, 40]","[2, 2]",2,1,4,50,5,2,3,1688
11,50,"[4, 3]","[90, 20]","[2, 2]",2,1,4,90,9,2,3,1606
11,51,"[4, 3]","[70, 30]","[2, 2]",2,1,4,70,7,2,3,1574
11,52,"[2, 1]","[80, 40]","[1, 1]",2,5,1,200,4,1,1,2190
11,53,"[4, 3]","[60, 60]","[2, 2]",2,5,4,300,6,2,4,1923
11,54,"[3, 4]","[50, 40]","[2, 2]",2,1,4,40,4,2,3,2641
11,55,"[4, 3]","[60, 40]","[2, 2]",2,5,4,300,6,2,3,4804
11,56,"[1, 2]","[80, 90]","[1, 1]",2,5,1,400,8,1,2,1553
11,57,"[4, 3]","[80, 60]","[2, 2]",2,5,4,400,8,2,3,1591
11,58,"[2, 1]","[70, 60]","[1, 2]",2,5,2,350,7,2,1,1587
11,59,"[1, 2]","[80, 60]","[1, 2]",2,5,2,300,6,2,1,2073
11,60,"[3, 4]","[90, 60]","[2, 2]",2,1,4,60,6,2,3,1738
11,61,"[1, 2]","[80, 50]","[1, 1]",2,5,1,400,8,1,1,1540
11,62,"[2, 1]","[30, 90]","[1, 2]",2,5,2,150,3,2,2,1706
11,63,"[4, 3]","[20, 70]","[2, 2]",2,1,4,20,2,2,4,2923
11,64,"[3, 4]","[70, 40]","[2, 1]",2,1,3,70,7,1,3,3675
11,65,"[2, 1]","[40, 80]","[1, 2]",2,1,2,40,4,2,2,10424
11,66,"[3, 4]","[90, 10]","[2, 1]",2,5,3,450,9,1,3,1739
11,67,"[3, 4]","[90, 20]","[2, 1]",2,5,3,450,9,1,3,1656
11,68,"[3, 4]","[80, 10]","[2, 1]",2,5,3,400,8,1,3,3639
11,69,"[4, 3]","[0, 90]","[2, 2]",2,1,4,0,0,2,4,3142
11,70,"[4, 3]","[10, 90]","[2, 2]",2,5,4,50,1,2,4,1621
11,71,"[4, 3]","[30, 70]","[2, 2]",2,1,4,30,3,2,4,2440
11,72,"[1, 2]","[60, 10]","[1, 1]",2,5,1,300,6,1,1,1723
11,73,"[4, 3]","[0, 70]","[2, 2]",2,5,4,0,0,2,4,1424
11,74,"[1, 2]","[80, 10]","[1, 1]",2,1,1,80,8,1,1,6890
11,75,"[1, 2]","[60, 0]","[1, 1]",2,5,1,300,6,1,1,1541
11,76,"[2, 1]","[20, 40]","[1, 2]",2,1,2,20,2,2,2,1457
11,77,"[4, 3]","[40, 20]","[2, 2]",2,1,4,40,4,2,3,1557
11,78,"[1, 2]","[10, 20]","[1, 2]",2,5,2,100,2,2,2,1525
11,79,"[1, 2]","[20, 0]","[1, 1]",2,5,1,100,2,1,1,1689
11,80,"[4, 3]","[20, 40]","[2, 2]",2,1,4,20,2,2,4,3275
12,1,"[3, 4]","[60, 40]","[2, 2]",1,1,4,40,4,2,3,35018
12,2,"[3, 4]","[60, 80]","[2, 2]",1,5,4,400,8,2,4,7507
12,3,"[1, 2]","[30, 50]","[1, 2]",1,5,2,250,5,2,2,4090
12,4,"[4, 3]","[50, 10]","[2, 2]",1,5,4,250,5,2,3,1988
12,5,"[1, 2]","[10, 50]","[1, 2]",1,5,2,250,5,2,2,3887
12,6,"[2, 1]","[50, 30]","[1, 2]",1,1,2,50,5,2,1,2288
12,7,"[1, 2]","[40, 80]","[1, 2]",1,1,2,80,8,2,2,1773
12,8,"[1, 2]","[60, 70]","[1, 1]",1,5,1,300,6,1,2,1872
12,9,"[4, 3]","[90, 80]","[2, 1]",1,5,3,400,8,1,3,4221
12,10,"[3, 4]","[80, 70]","[2, 1]",1,1,3,80,8,1,3,2370
12,11,"[2, 1]","[70, 70]","[1, 1]",1,5,1,350,7,1,2,2394
12,12,"[4, 3]","[70, 70]","[2, 1]",1,1,3,70,7,1,4,2653
12,13,"[2, 1]","[70, 70]","[1, 1]",1,1,1,70,7,1,2,2271
12,14,"[1, 2]","[80, 70]","[1, 1]",1,5,1,400,8,1,1,2256
12,15,"[2, 1]","[60, 70]","[1, 1]",1,1,1,70,7,1,2,5090
12,16,"[4, 3]","[50, 50]","[2, 2]",1,5,4,250,5,2,4,4339
12,17,"[3, 4]","[40, 50]","[2, 1]",1,5,3,200,4,1,4,2623
12,18,"[3, 4]","[40, 70]","[2, 1]",1,1,3,40,4,1,4,3073
12,19,"[1, 2]","[30, 90]","[1, 1]",1,1,1,30,3,1,2,2339
12,20,"[3, 4]","[20, 80]","[2, 2]",1,1,4,80,8,2,4,3473
12,21,"[2, 1]","[80, 60]","[1, 2]",1,5,2,400,8,2,1,2704
12,22,"[3, 4]","[70, 70]","[2, 1]",1,5,3,350,7,1,3,2190
12,23,"[3, 4]","[70, 50]","[2, 2]",1,5,4,250,5,2,3,4207
12,24,"[1, 2]","[70, 40]","[1, 2]",1,1,2,40,4,2,1,2688
12,25,"[1, 2]","[70, 20]","[1, 2]",1,5,2,100,2,2,1,2106
12,26,"[2, 1]","[30, 90]","[1, 2]",1,1,2,30,3,2,2,1857
12,27,"[1, 2]","[60, 10]","[1, 1]",1,1,1,60,6,1,1,2189
12,28,"[4, 3]","[10, 30]","[2, 1]",1,1,3,30,3,1,4,1673
12,29,"[2, 1]","[20, 30]","[1, 1]",1,1,1,30,3,1,2,1722
12,30,"[1, 2]","[10, 20]","[1, 1]",1,5,1,50,1,1,2,2105
12,31,"[2, 1]","[10, 0]","[1, 1]",1,1,1,0,0,1,1,1940
12,32,"[3, 4]","[0, 10]","[2, 1]",1,5,3,0,0,1,4,1692
12,33,"[4, 3]","[0, 10]","[2, 2]",1,1,4,0,0,2,4,1989
12,34,"[4, 3]","[20, 10]","[2, 1]",1,5,3,50,1,1,3,1756
12,35,"[2, 1]","[20, 40]","[1, 1]",1,5,1,200,4,1,2,2107
12,36,"[1, 2]","[30, 10]","[1, 2]",1,5,2,50,1,2,1,1672
12,37,"[2, 1]","[10, 40]","[1, 2]",1,5,2,50,1,2,2,1655
12,38,"[4, 3]","[0, 20]","[2, 2]",1,5,4,0,0,2,4,1705
12,39,"[1, 2]","[10, 10]","[1, 2]",1,1,2,10,1,2,1,1756
12,40,"[4, 3]","[20, 40]","[2, 2]",1,5,4,100,2,2,4,1622
12,41,"[4, 3]","[30, 70]","[2, 2]",2,1,4,30,3,2,4,14003
12,42,"[3, 4]","[60, 30]","[2, 2]",2,1,4,30,3,2,3,2255
12,43,"[4, 3]","[60, 50]","[2, 2]",2,1,4,60,6,2,3,3437
12,44,"[2, 1]","[40, 40]","[1, 2]",2,5,2,200,4,2,2,1906
12,45,"[4, 3]","[20, 50]","[2, 2]",2,1,4,20,2,2,4,1959
12,46,"[2, 1]","[40, 80]","[1, 2]",2,5,2,200,4,2,2,1690
12,47,"[1, 2]","[50, 50]","[1, 2]",2,5,2,250,5,2,1,3137
12,48,"[1, 2]","[50, 70]","[1, 2]",2,5,2,350,7,2,2,2703
12,49,"[3, 4]","[50, 70]","[2, 2]",2,1,4,70,7,2,4,2224
12,50,"[4, 3]","[50, 30]","[2, 2]",2,1,4,50,5,2,3,2257
12,51,"[1, 2]","[30, 60]","[1, 2]",2,1,2,60,6,2,2,2873
12,52,"[2, 1]","[50, 50]","[1, 2]",2,5,2,250,5,2,2,2022
12,53,"[1, 2]","[40, 30]","[1, 2]",2,5,2,150,3,2,1,2221
12,54,"[1, 2]","[20, 40]","[1, 2]",2,5,2,200,4,2,2,1740
12,55,"[2, 1]","[70, 10]","[1, 2]",2,5,2,350,7,2,1,2487
12,56,"[2, 1]","[90, 0]","[1, 2]",2,5,2,450,9,2,1,2705
12,57,"[1, 2]","[10, 80]","[1, 2]",2,1,2,80,8,2,2,2186
12,58,"[4, 3]","[80, 30]","[2, 2]",2,1,4,80,8,2,3,2106
12,59,"[1, 2]","[30, 30]","[1, 2]",2,1,2,30,3,2,1,2257
12,60,"[2, 1]","[30, 20]","[1, 2]",2,1,2,30,3,2,1,2389
12,61,"[2, 1]","[60, 20]","[1, 2]",2,5,2,300,6,2,1,2140
12,62,"[1, 2]","[30, 60]","[1, 2]",2,1,2,60,6,2,2,2121
12,63,"[3, 4]","[40, 30]","[2, 2]",2,5,4,150,3,2,3,2122
12,64,"[4, 3]","[40, 30]","[2, 2]",2,5,4,200,4,2,3,1873
12,65,"[4, 3]","[10, 30]","[2, 2]",2,1,4,10,1,2,4,1789
12,66,"[1, 2]","[40, 20]","[1, 2]",2,1,2,20,2,2,1,2206
12,67,"[2, 1]","[30, 10]","[1, 2]",2,5,2,150,3,2,1,2189
12,68,"[4, 3]","[10, 10]","[2, 2]",2,5,4,50,1,2,4,1972
12,69,"[3, 4]","[20, 0]","[2, 2]",2,1,4,0,0,2,3,1823
12,70,"[2, 1]","[10, 20]","[1, 1]",2,5,1,100,2,1,2,1806
12,71,"[3, 4]","[20, 20]","[2, 1]",2,1,3,20,2,1,3,2173
12,72,"[2, 1]","[80, 20]","[1, 1]",2,5,1,100,2,1,1,2109
12,73,"[1, 2]","[20, 90]","[1, 1]",2,1,1,20,2,1,2,2055
12,74,"[2, 1]","[80, 50]","[1, 1]",2,1,1,50,5,1,1,2257
12,75,"[2, 1]","[80, 50]","[1, 1]",2,1,1,50,5,1,1,2224
12,76,"[3, 4]","[60, 80]","[2, 1]",2,1,3,60,6,1,4,2073
12,77,"[1, 2]","[70, 80]","[1, 1]",2,5,1,350,7,1,2,2506
12,78,"[3, 4]","[70, 80]","[2, 1]",2,1,3,70,7,1,4,2594
12,79,"[2, 1]","[80, 60]","[1, 1]",2,5,1,300,6,1,1,1906
12,80,"[1, 2]","[40, 70]","[1, 1]",2,1,1,40,4,1,2,2474
13,1,"[4, 3]","[10, 70]","[2, 1]",1,5,3,350,7,1,4,22932
13,2,"[2, 1]","[0, 50]","[1, 1]",1,5,1,250,5,1,2,1975
13,3,"[3, 4]","[50, 20]","[2, 1]",1,1,3,50,5,1,3,2458
13,4,"[2, 1]","[30, 30]","[1, 1]",1,5,1,150,3,1,2,1643
13,5,"[2, 1]","[60, 30]","[1, 1]",1,5,1,150,3,1,1,1908
13,6,"[2, 1]","[40, 40]","[1, 2]",1,5,2,200,4,2,2,2467
13,7,"[2, 1]","[40, 0]","[1, 2]",1,1,2,40,4,2,1,2541
13,8,"[3, 4]","[0, 50]","[2, 2]",1,5,4,250,5,2,4,1683
13,9,"[3, 4]","[20, 50]","[2, 2]",1,5,4,250,5,2,4,2025
13,10,"[2, 1]","[40, 20]","[1, 2]",1,5,2,200,4,2,1,3084
13,11,"[4, 3]","[40, 40]","[2, 2]",1,1,4,40,4,2,4,3142
13,12,"[1, 2]","[30, 30]","[1, 2]",1,1,2,30,3,2,1,2342
13,13,"[1, 2]","[70, 40]","[1, 1]",1,1,1,70,7,1,1,3067
13,14,"[3, 4]","[80, 50]","[2, 1]",1,5,3,400,8,1,3,2284
13,15,"[3, 4]","[90, 60]","[2, 1]",1,1,3,90,9,1,3,2010
13,16,"[4, 3]","[90, 90]","[2, 1]",1,5,3,450,9,1,4,1675
13,17,"[2, 1]","[70, 90]","[1, 1]",1,5,1,450,9,1,2,1908
13,18,"[4, 3]","[90, 80]","[2, 1]",1,1,3,80,8,1,3,2225
13,19,"[4, 3]","[70, 80]","[2, 1]",1,1,3,80,8,1,4,1687
13,20,"[4, 3]","[70, 80]","[2, 1]",1,1,3,80,8,1,4,2050
13,21,"[3, 4]","[40, 90]","[2, 1]",1,5,3,200,4,1,4,1850
13,22,"[2, 1]","[90, 40]","[1, 1]",1,1,1,40,4,1,1,1967
13,23,"[2, 1]","[80, 60]","[1, 1]",1,5,1,300,6,1,1,1776
13,24,"[3, 4]","[70, 70]","[2, 2]",1,1,4,70,7,2,3,1705
13,25,"[2, 1]","[80, 60]","[1, 2]",1,5,2,400,8,2,1,2783
13,26,"[2, 1]","[50, 60]","[1, 2]",1,1,2,50,5,2,2,2125
13,27,"[1, 2]","[50, 70]","[1, 2]",1,5,2,350,7,2,2,2058
13,28,"[3, 4]","[60, 70]","[2, 2]",1,5,4,350,7,2,4,2291
13,29,"[4, 3]","[30, 50]","[2, 2]",1,5,4,150,3,2,4,1757
13,30,"[4, 3]","[30, 50]","[2, 2]",1,5,4,150,3,2,4,1808
13,31,"[3, 4]","[30, 0]","[2, 2]",1,5,4,0,0,2,3,1722
13,32,"[3, 4]","[30, 20]","[2, 1]",1,1,3,30,3,1,3,1658
13,33,"[3, 4]","[40, 10]","[2, 1]",1,5,3,200,4,1,3,1625
13,34,"[1, 2]","[10, 0]","[1, 1]",1,1,1,10,1,1,1,2975
13,35,"[2, 1]","[10, 10]","[1, 1]",1,1,1,10,1,1,2,1743
13,36,"[3, 4]","[0, 40]","[2, 1]",1,1,3,0,0,1,4,1925
13,37,"[3, 4]","[0, 10]","[2, 2]",1,1,4,10,1,2,4,1622
13,38,"[4, 3]","[20, 0]","[2, 1]",1,5,3,0,0,1,3,1843
13,39,"[4, 3]","[30, 10]","[2, 2]",1,1,4,30,3,2,3,1775
13,40,"[3, 4]","[20, 40]","[2, 2]",1,5,4,200,4,2,4,1892
13,41,"[1, 2]","[10, 40]","[1, 1]",2,5,1,50,1,1,2,9600
13,42,"[1, 2]","[10, 40]","[1, 1]",2,1,1,10,1,1,2,1751
13,43,"[4, 3]","[40, 20]","[2, 2]",2,1,4,40,4,2,3,1826
13,44,"[1, 2]","[0, 40]","[1, 2]",2,1,2,40,4,2,2,2775
13,45,"[3, 4]","[20, 70]","[2, 2]",2,1,4,70,7,2,4,2325
13,46,"[4, 3]","[60, 40]","[2, 2]",2,5,4,300,6,2,3,1833
13,47,"[1, 2]","[80, 80]","[1, 2]",2,5,2,400,8,2,1,2484
13,48,"[1, 2]","[80, 40]","[1, 2]",2,1,2,40,4,2,1,2226
13,49,"[3, 4]","[50, 30]","[2, 2]",2,1,4,30,3,2,3,2373
13,50,"[4, 3]","[0, 40]","[2, 2]",2,1,4,0,0,2,4,2717
13,51,"[3, 4]","[50, 10]","[2, 1]",2,5,3,250,5,1,3,1891
13,52,"[4, 3]","[0, 50]","[2, 1]",2,5,3,250,5,1,4,1800
13,53,"[2, 1]","[30, 50]","[1, 1]",2,5,1,250,5,1,2,2676
13,54,"[4, 3]","[10, 10]","[2, 1]",2,1,3,10,1,1,4,2289
13,55,"[1, 2]","[0, 20]","[1, 2]",2,1,2,20,2,2,2,2192
13,56,"[4, 3]","[10, 20]","[2, 2]",2,1,4,10,1,2,4,2208
13,57,"[4, 3]","[10, 30]","[2, 1]",2,5,3,150,3,1,4,1674
13,58,"[3, 4]","[50, 20]","[2, 1]",2,1,3,50,5,1,3,1742
13,59,"[2, 1]","[20, 60]","[1, 1]",2,5,1,300,6,1,2,2324
13,60,"[4, 3]","[10, 40]","[2, 1]",2,5,3,200,4,1,4,2342
13,61,"[4, 3]","[20, 40]","[2, 1]",2,1,3,40,4,1,4,1834
13,62,"[1, 2]","[50, 20]","[1, 2]",2,5,2,100,2,2,1,1942
13,63,"[1, 2]","[80, 20]","[1, 2]",2,1,2,20,2,2,1,2225
13,64,"[3, 4]","[70, 20]","[2, 2]",2,5,4,100,2,2,3,2725
13,65,"[3, 4]","[60, 30]","[2, 2]",2,1,4,30,3,2,3,3010
13,66,"[4, 3]","[50, 90]","[2, 2]",2,1,4,50,5,2,4,2125
13,67,"[4, 3]","[20, 90]","[2, 2]",2,5,4,100,2,2,4,3892
13,68,"[3, 4]","[80, 30]","[2, 2]",2,1,4,30,3,2,3,1734
13,69,"[1, 2]","[80, 60]","[1, 2]",2,1,2,60,6,2,1,2384
13,70,"[3, 4]","[90, 30]","[2, 2]",2,1,4,30,3,2,3,2108
13,71,"[3, 4]","[80, 40]","[2, 1]",2,5,3,400,8,1,3,2927
13,72,"[1, 2]","[60, 40]","[1, 1]",2,5,1,300,6,1,1,2500
13,73,"[1, 2]","[70, 10]","[1, 1]",2,5,1,350,7,1,1,2125
13,74,"[4, 3]","[20, 60]","[2, 1]",2,5,3,300,6,1,4,1643
13,75,"[1, 2]","[60, 0]","[1, 1]",2,1,1,60,6,1,1,2191
13,76,"[1, 2]","[30, 0]","[1, 1]",2,1,1,30,3,1,1,2042
13,77,"[3, 4]","[10, 30]","[2, 1]",2,5,3,50,1,1,4,2091
13,78,"[3, 4]","[50, 30]","[2, 2]",2,5,4,150,3,2,3,1801
13,79,"[3, 4]","[60, 10]","[2, 2]",2,1,4,10,1,2,3,2025
13,80,"[1, 2]","[90, 0]","[1, 2]",2,1,2,0,0,2,1,3692
13,1,"[2, 1]","[20, 60]","[1, 2]",1,5,2,100,2,2,2,3820
13,2,"[3, 4]","[70, 40]","[2, 2]",1,5,4,200,4,2,3,2874
13,3,"[1, 2]","[90, 70]","[1, 2]",1,1,2,70,7,2,1,2292
13,4,"[4, 3]","[40, 60]","[2, 2]",1,1,4,40,4,2,4,1824
13,5,"[3, 4]","[70, 50]","[2, 1]",1,5,3,350,7,1,3,1857
13,6,"[4, 3]","[70, 20]","[2, 1]",1,1,3,20,2,1,3,1983
13,7,"[2, 1]","[60, 10]","[1, 1]",1,1,1,10,1,1,1,2228
13,8,"[2, 1]","[40, 0]","[1, 1]",1,5,1,0,0,1,1,2400
13,9,"[4, 3]","[90, 0]","[2, 1]",1,1,3,0,0,1,3,1934
13,10,"[4, 3]","[90, 10]","[2, 2]",1,5,4,450,9,2,3,1725
13,11,"[4, 3]","[90, 20]","[2, 2]",1,5,4,450,9,2,3,2033
13,12,"[1, 2]","[10, 90]","[1, 1]",1,1,1,10,1,1,2,1658
13,13,"[3, 4]","[20, 70]","[2, 2]",1,1,4,70,7,2,4,1924
13,14,"[2, 1]","[70, 30]","[1, 2]",1,1,2,70,7,2,1,2041
13,15,"[3, 4]","[30, 50]","[2, 2]",1,5,4,250,5,2,4,1775
13,16,"[3, 4]","[40, 60]","[2, 2]",1,1,4,60,6,2,4,1841
13,17,"[1, 2]","[40, 70]","[1, 1]",1,1,1,40,4,1,2,2073
13,18,"[4, 3]","[40, 60]","[2, 2]",1,5,4,200,4,2,4,1956
13,19,"[3, 4]","[60, 40]","[2, 2]",1,5,4,200,4,2,3,1921
13,20,"[1, 2]","[70, 20]","[1, 2]",1,5,2,100,2,2,1,2174
13,21,"[1, 2]","[70, 0]","[1, 2]",1,5,2,0,0,2,1,1824
13,22,"[2, 1]","[20, 80]","[1, 1]",1,5,1,400,8,1,2,1992
13,23,"[1, 2]","[80, 10]","[1, 1]",1,5,1,400,8,1,1,1900
13,24,"[4, 3]","[0, 70]","[2, 1]",1,1,3,70,7,1,4,2215
13,25,"[1, 2]","[70, 10]","[1, 1]",1,1,1,70,7,1,1,2271
13,26,"[4, 3]","[30, 60]","[2, 1]",1,1,3,60,6,1,4,2543
13,27,"[2, 1]","[50, 40]","[1, 1]",1,1,1,40,4,1,1,4591
13,28,"[2, 1]","[50, 60]","[1, 1]",1,1,1,60,6,1,2,1925
13,29,"[1, 2]","[70, 60]","[1, 2]",1,5,2,300,6,2,1,8610
13,30,"[3, 4]","[50, 70]","[2, 1]",1,1,3,50,5,1,4,3600
13,31,"[4, 3]","[80, 70]","[2, 1]",1,5,3,350,7,1,3,1676
13,32,"[4, 3]","[60, 20]","[2, 1]",1,5,3,100,2,1,3,1698
13,33,"[3, 4]","[10, 60]","[2, 1]",1,1,3,10,1,1,4,2389
13,34,"[3, 4]","[30, 40]","[2, 1]",1,5,3,150,3,1,4,2305
13,35,"[4, 3]","[40, 20]","[2, 1]",1,5,3,100,2,1,3,2096
13,36,"[3, 4]","[10, 30]","[2, 1]",1,5,3,50,1,1,4,2091
13,37,"[1, 2]","[20, 40]","[1, 1]",1,1,1,20,2,1,2,1909
13,38,"[1, 2]","[80, 60]","[1, 2]",1,1,2,60,6,2,1,1958
13,39,"[2, 1]","[70, 80]","[1, 1]",1,1,1,80,8,1,2,1753
13,40,"[3, 4]","[70, 40]","[2, 1]",1,1,3,70,7,1,3,2574
13,41,"[2, 1]","[50, 80]","[1, 2]",2,5,2,250,5,2,2,2292
13,42,"[3, 4]","[70, 60]","[2, 2]",2,1,4,60,6,2,3,1875
13,43,"[4, 3]","[50, 90]","[2, 2]",2,1,4,50,5,2,4,1933
13,44,"[1, 2]","[50, 50]","[1, 2]",2,1,2,50,5,2,1,2507
13,45,"[4, 3]","[60, 40]","[2, 2]",2,5,4,300,6,2,3,1850
13,46,"[1, 2]","[10, 50]","[1, 2]",2,1,2,50,5,2,2,2259
13,47,"[4, 3]","[60, 0]","[2, 2]",2,1,4,60,6,2,3,1901
13,48,"[2, 1]","[60, 20]","[1, 2]",2,1,2,60,6,2,1,3009
13,49,"[1, 2]","[10, 90]","[1, 2]",2,5,2,450,9,2,2,2026
13,50,"[4, 3]","[80, 30]","[2, 2]",2,5,4,400,8,2,3,1841
13,51,"[4, 3]","[70, 10]","[2, 2]",2,5,4,350,7,2,3,2017
13,52,"[1, 2]","[10, 40]","[1, 2]",2,5,2,200,4,2,2,2351
13,53,"[3, 4]","[20, 70]","[2, 2]",2,5,4,350,7,2,4,2108
13,54,"[4, 3]","[90, 10]","[2, 2]",2,5,4,450,9,2,3,2041
13,55,"[1, 2]","[20, 50]","[1, 2]",2,1,2,50,5,2,2,2059
13,56,"[4, 3]","[70, 20]","[2, 2]",2,5,4,350,7,2,3,9508
13,57,"[1, 2]","[10, 90]","[1, 2]",2,5,2,450,9,2,2,4384
13,58,"[4, 3]","[50, 20]","[2, 2]",2,5,4,250,5,2,3,2257
13,59,"[2, 1]","[50, 20]","[1, 2]",2,1,2,50,5,2,1,2334
13,60,"[1, 2]","[30, 50]","[1, 2]",2,1,2,50,5,2,2,2048
13,61,"[3, 4]","[20, 60]","[2, 2]",2,5,4,300,6,2,4,1891
13,62,"[3, 4]","[50, 40]","[2, 2]",2,5,4,200,4,2,3,6708
13,63,"[1, 2]","[60, 50]","[1, 1]",2,5,1,300,6,1,1,3608
13,64,"[4, 3]","[70, 60]","[2, 1]",2,1,3,60,6,1,3,1572
13,65,"[2, 1]","[90, 60]","[1, 1]",2,1,1,60,6,1,1,1891
13,66,"[1, 2]","[40, 50]","[1, 1]",2,1,1,40,4,1,2,1934
13,67,"[3, 4]","[40, 40]","[2, 2]",2,1,4,40,4,2,3,2241
13,68,"[3, 4]","[20, 30]","[2, 2]",2,5,4,150,3,2,4,1824
13,69,"[3, 4]","[50, 50]","[2, 2]",2,1,4,50,5,2,3,1754
13,70,"[4, 3]","[30, 80]","[2, 2]",2,1,4,30,3,2,4,1842
13,71,"[3, 4]","[70, 0]","[2, 2]",2,1,4,0,0,2,3,1693
13,72,"[3, 4]","[70, 10]","[2, 1]",2,5,3,350,7,1,3,1717
13,73,"[4, 3]","[10, 80]","[2, 1]",2,5,3,400,8,1,4,1741
13,74,"[4, 3]","[20, 70]","[2, 1]",2,1,3,70,7,1,4,1757
13,75,"[4, 3]","[50, 70]","[2, 1]",2,5,3,350,7,1,4,1907
13,76,"[3, 4]","[20, 40]","[2, 1]",2,5,3,100,2,1,4,2272
13,77,"[4, 3]","[20, 10]","[2, 1]",2,1,3,10,1,1,3,2660
13,78,"[3, 4]","[30, 30]","[2, 2]",2,5,4,150,3,2,3,3041
13,79,"[2, 1]","[30, 30]","[1, 2]",2,1,2,30,3,2,2,2007
13,80,"[3, 4]","[30, 20]","[2, 2]",2,5,4,100,2,2,3,2008
14,1,"[1, 2]","[60, 20]","[1, 1]",1,1,1,60,6,1,1,3305
14,2,"[3, 4]","[50, 20]","[2, 2]",1,5,4,100,2,2,3,1663
14,3,"[3, 4]","[10, 30]","[2, 1]",1,1,3,10,1,1,4,1817
14,4,"[2, 1]","[50, 40]","[1, 1]",1,1,1,40,4,1,1,1749
14,5,"[1, 2]","[60, 50]","[1, 1]",1,5,1,300,6,1,1,49127
14,6,"[3, 4]","[30, 50]","[2, 2]",1,5,4,250,5,2,4,22359
14,7,"[4, 3]","[40, 50]","[2, 2]",1,5,4,200,4,2,4,57987
14,8,"[3, 4]","[80, 40]","[2, 1]",1,5,3,400,8,1,3,14090
14,9,"[1, 2]","[50, 30]","[1, 1]",1,1,1,50,5,1,1,1736
14,10,"[2, 1]","[50, 30]","[1, 1]",1,5,1,150,3,1,1,1640
14,11,"[3, 4]","[20, 60]","[2, 1]",1,1,3,20,2,1,4,1710
14,12,"[4, 3]","[50, 20]","[2, 2]",1,5,4,250,5,2,3,6417
14,13,"[4, 3]","[20, 10]","[2, 2]",1,5,4,100,2,2,3,1854
14,14,"[4, 3]","[40, 20]","[2, 1]",1,1,3,20,2,1,3,1691
14,15,"[1, 2]","[60, 50]","[1, 2]",1,1,2,50,5,2,1,33718
14,16,"[3, 4]","[90, 30]","[2, 2]",1,1,4,30,3,2,3,1757
14,17,"[3, 4]","[60, 30]","[2, 1]",1,5,3,300,6,1,3,1799
14,18,"[3, 4]","[50, 40]","[2, 1]",1,5,3,250,5,1,3,10757
14,19,"[4, 3]","[50, 70]","[2, 2]",1,1,4,50,5,2,4,7682
14,20,"[3, 4]","[10, 50]","[2, 2]",1,5,4,250,5,2,4,1748
14,21,"[1, 2]","[20, 50]","[1, 1]",1,1,1,20,2,1,2,1714
14,22,"[1, 2]","[60, 50]","[1, 1]",1,1,1,60,6,1,1,2180
14,23,"[1, 2]","[80, 70]","[1, 1]",1,1,1,80,8,1,1,1806
14,24,"[3, 4]","[80, 70]","[2, 1]",1,1,3,80,8,1,3,1801
14,25,"[4, 3]","[70, 70]","[2, 1]",1,5,3,350,7,1,4,1689
14,26,"[4, 3]","[50, 60]","[2, 2]",1,1,4,50,5,2,4,1676
14,27,"[2, 1]","[60, 70]","[1, 1]",1,1,1,70,7,1,2,1632
14,28,"[3, 4]","[50, 70]","[2, 1]",1,5,3,250,5,1,4,1791
14,29,"[3, 4]","[80, 80]","[2, 2]",1,1,4,80,8,2,3,1761
14,30,"[3, 4]","[70, 60]","[2, 1]",1,1,3,70,7,1,3,2992
14,31,"[4, 3]","[80, 50]","[2, 1]",1,5,3,250,5,1,3,9718
14,32,"[1, 2]","[50, 80]","[1, 2]",1,5,2,400,8,2,2,1668
14,33,"[3, 4]","[30, 90]","[2, 1]",1,1,3,30,3,1,4,1641
14,34,"[2, 1]","[80, 30]","[1, 1]",1,5,1,150,3,1,1,1631
14,35,"[1, 2]","[30, 70]","[1, 2]",1,1,2,70,7,2,2,1581
14,36,"[4, 3]","[70, 50]","[2, 1]",1,1,3,50,5,1,3,1966
14,37,"[1, 2]","[50, 50]","[1, 2]",1,5,2,250,5,2,1,2251
14,38,"[1, 2]","[70, 60]","[1, 2]",1,1,2,60,6,2,1,2146
14,39,"[2, 1]","[60, 50]","[1, 1]",1,5,1,250,5,1,1,2323
14,40,"[2, 1]","[50, 20]","[1, 1]",1,1,1,20,2,1,1,2449
14,41,"[1, 2]","[10, 40]","[1, 2]",2,5,2,200,4,2,2,18642
14,42,"[3, 4]","[20, 30]","[2, 2]",2,1,4,30,3,2,4,2000
14,43,"[2, 1]","[10, 0]","[1, 1]",2,1,1,0,0,1,1,3933
14,44,"[3, 4]","[20, 10]","[2, 2]",2,1,4,10,1,2,3,3312
14,45,"[4, 3]","[0, 10]","[2, 1]",2,1,3,10,1,1,4,3270
14,46,"[2, 1]","[0, 10]","[1, 2]",2,5,2,0,0,2,2,2157
14,47,"[1, 2]","[0, 10]","[1, 2]",2,1,2,10,1,2,2,2616
14,48,"[2, 1]","[0, 20]","[1, 1]",2,1,1,20,2,1,2,2685
14,49,"[3, 4]","[20, 10]","[2, 1]",2,5,3,100,2,1,3,1925
14,50,"[1, 2]","[40, 30]","[1, 1]",2,1,1,40,4,1,1,2085
14,51,"[4, 3]","[50, 50]","[2, 2]",2,1,4,50,5,2,4,8362
14,52,"[2, 1]","[70, 60]","[1, 1]",2,1,1,60,6,1,1,2245
14,53,"[2, 1]","[70, 70]","[1, 1]",2,1,1,70,7,1,2,1829
14,54,"[3, 4]","[80, 50]","[2, 1]",2,5,3,400,8,1,3,11097
14,55,"[2, 1]","[40, 90]","[1, 2]",2,1,2,40,4,2,2,31205
14,56,"[4, 3]","[40, 80]","[2, 1]",2,5,3,400,8,1,4,8108
14,57,"[2, 1]","[50, 90]","[1, 1]",2,5,1,450,9,1,2,8258
14,58,"[3, 4]","[70, 70]","[2, 1]",2,5,3,350,7,1,3,16604
14,59,"[1, 2]","[70, 30]","[1, 2]",2,1,2,30,3,2,1,5120
14,60,"[1, 2]","[80, 40]","[1, 1]",2,5,1,400,8,1,1,5645
14,61,"[2, 1]","[10, 90]","[1, 2]",2,5,2,50,1,2,2,10312
14,62,"[3, 4]","[80, 10]","[2, 2]",2,5,4,50,1,2,3,1649
14,63,"[1, 2]","[70, 20]","[1, 1]",2,5,1,350,7,1,1,1594
14,64,"[3, 4]","[60, 40]","[2, 2]",2,5,4,200,4,2,3,2794
14,65,"[1, 2]","[30, 20]","[1, 1]",2,1,1,30,3,1,1,1752
14,66,"[1, 2]","[20, 30]","[1, 2]",2,5,2,150,3,2,2,1708
14,67,"[3, 4]","[10, 20]","[2, 1]",2,5,3,50,1,1,4,1645
14,68,"[4, 3]","[0, 10]","[2, 1]",2,5,3,50,1,1,4,1604
14,69,"[4, 3]","[30, 20]","[2, 1]",2,5,3,100,2,1,3,1753
14,70,"[1, 2]","[10, 10]","[1, 2]",2,1,2,10,1,2,1,1672
14,71,"[4, 3]","[30, 10]","[2, 2]",2,5,4,150,3,2,3,4174
14,72,"[2, 1]","[10, 40]","[1, 2]",2,5,2,50,1,2,2,10874
14,73,"[1, 2]","[30, 20]","[1, 2]",2,5,2,100,2,2,1,3079
14,74,"[2, 1]","[30, 20]","[1, 2]",2,1,2,30,3,2,1,1573
14,75,"[4, 3]","[30, 20]","[2, 1]",2,5,3,100,2,1,3,1667
14,76,"[3, 4]","[40, 30]","[2, 1]",2,1,3,40,4,1,3,1712
14,77,"[4, 3]","[30, 50]","[2, 1]",2,1,3,50,5,1,4,1706
14,78,"[2, 1]","[50, 70]","[1, 2]",2,5,2,250,5,2,2,1662
14,79,"[1, 2]","[90, 80]","[1, 2]",2,5,2,400,8,2,1,1671
14,80,"[3, 4]","[30, 70]","[2, 1]",2,1,3,30,3,1,4,1664
15,1,"[4, 3]","[90, 30]","[2, 1]",1,1,3,30,3,1,3,7824
15,2,"[1, 2]","[50, 80]","[1, 2]",1,1,2,80,8,2,2,3091
15,3,"[2, 1]","[60, 50]","[1, 2]",1,1,2,60,6,2,1,2824
15,4,"[2, 1]","[80, 50]","[1, 2]",1,5,2,400,8,2,1,3224
15,5,"[4, 3]","[80, 30]","[2, 2]",1,1,4,80,8,2,3,2256
15,6,"[3, 4]","[0, 90]","[2, 2]",1,1,4,90,9,2,4,2224
15,7,"[4, 3]","[70, 20]","[2, 2]",1,1,4,70,7,2,3,3182
15,8,"[1, 2]","[0, 60]","[1, 2]",1,5,2,300,6,2,2,3910
15,9,"[1, 2]","[0, 50]","[1, 1]",1,1,1,0,0,1,2,3857
15,10,"[2, 1]","[0, 10]","[1, 2]",1,5,2,0,0,2,2,4076
15,11,"[2, 1]","[0, 20]","[1, 1]",1,1,1,20,2,1,2,2431
15,12,"[3, 4]","[30, 10]","[2, 1]",1,1,3,30,3,1,3,2486
15,13,"[2, 1]","[0, 30]","[1, 2]",1,1,2,0,0,2,2,4192
15,14,"[1, 2]","[50, 20]","[1, 1]",1,5,1,250,5,1,1,2222
15,15,"[4, 3]","[30, 40]","[2, 1]",1,5,3,200,4,1,4,2573
15,16,"[2, 1]","[50, 40]","[1, 1]",1,1,1,40,4,1,1,4643
15,17,"[1, 2]","[80, 30]","[1, 1]",1,1,1,80,8,1,1,4059
15,18,"[1, 2]","[60, 30]","[1, 1]",1,5,1,300,6,1,1,1803
15,19,"[3, 4]","[40, 10]","[2, 1]",1,5,3,200,4,1,3,2673
15,20,"[4, 3]","[10, 40]","[2, 1]",1,5,3,200,4,1,4,2966
15,21,"[2, 1]","[30, 50]","[1, 1]",1,1,1,50,5,1,2,7969
15,22,"[4, 3]","[10, 60]","[2, 1]",1,1,3,60,6,1,4,2023
15,23,"[4, 3]","[10, 50]","[2, 1]",1,1,3,50,5,1,4,2153
15,24,"[2, 1]","[20, 40]","[1, 1]",1,5,1,200,4,1,2,3122
15,25,"[4, 3]","[20, 50]","[2, 1]",1,1,3,50,5,1,4,1938
15,26,"[4, 3]","[10, 30]","[2, 1]",1,5,3,150,3,1,4,3926
15,27,"[1, 2]","[40, 10]","[1, 1]",1,5,1,200,4,1,1,3607
15,28,"[3, 4]","[70, 10]","[2, 1]",1,1,3,70,7,1,3,2347
15,29,"[1, 2]","[80, 30]","[1, 1]",1,5,1,400,8,1,1,2823
15,30,"[2, 1]","[30, 60]","[1, 1]",1,5,1,300,6,1,2,3147
15,31,"[4, 3]","[10, 40]","[2, 1]",1,5,3,200,4,1,4,2146
15,32,"[2, 1]","[10, 10]","[1, 1]",1,1,1,10,1,1,2,3228
15,33,"[4, 3]","[10, 20]","[2, 2]",1,5,4,50,1,2,4,5571
15,34,"[4, 3]","[30, 30]","[2, 2]",1,1,4,30,3,2,4,2398
15,35,"[3, 4]","[40, 50]","[2, 2]",1,1,4,50,5,2,4,1820
15,36,"[3, 4]","[60, 80]","[2, 2]",1,5,4,400,8,2,4,1796
15,37,"[1, 2]","[80, 50]","[1, 2]",1,5,2,250,5,2,1,6279
15,38,"[4, 3]","[60, 90]","[2, 2]",1,1,4,60,6,2,4,2456
15,39,"[3, 4]","[70, 80]","[2, 2]",1,1,4,80,8,2,4,4925
15,40,"[1, 2]","[60, 80]","[1, 2]",1,5,2,400,8,2,2,7307
15,41,"[1, 2]","[70, 80]","[1, 2]",2,1,2,80,8,2,2,9161
15,42,"[2, 1]","[50, 70]","[1, 2]",2,1,2,50,5,2,2,5620
15,43,"[2, 1]","[70, 90]","[1, 1]",2,1,1,90,9,1,2,4252
15,44,"[1, 2]","[80, 80]","[1, 1]",2,5,1,400,8,1,1,2982
15,45,"[3, 4]","[80, 60]","[2, 2]",2,5,4,300,6,2,3,4845
15,46,"[3, 4]","[80, 90]","[2, 1]",2,5,3,400,8,1,4,4134
15,47,"[1, 2]","[70, 80]","[1, 2]",2,1,2,80,8,2,2,3108
15,48,"[3, 4]","[50, 60]","[2, 1]",2,1,3,50,5,1,4,4168
15,49,"[2, 1]","[30, 30]","[1, 2]",2,1,2,30,3,2,2,2682
15,50,"[1, 2]","[10, 10]","[1, 1]",2,1,1,10,1,1,1,3575
15,51,"[4, 3]","[20, 0]","[2, 2]",2,5,4,100,2,2,3,2817
15,52,"[2, 1]","[0, 10]","[1, 2]",2,1,2,0,0,2,2,6315
15,53,"[2, 1]","[10, 10]","[1, 1]",2,1,1,10,1,1,2,3183
15,54,"[1, 2]","[30, 10]","[1, 1]",2,5,1,150,3,1,1,4427
15,55,"[2, 1]","[40, 40]","[1, 1]",2,5,1,200,4,1,2,3467
15,56,"[4, 3]","[40, 50]","[2, 1]",2,5,3,250,5,1,4,3000
15,57,"[2, 1]","[80, 70]","[1, 1]",2,5,1,350,7,1,1,3224
15,58,"[4, 3]","[80, 60]","[2, 1]",2,5,3,300,6,1,3,2207
15,59,"[3, 4]","[40, 60]","[2, 1]",2,1,3,40,4,1,4,2382
15,60,"[2, 1]","[60, 30]","[1, 1]",2,5,1,150,3,1,1,6252
15,61,"[2, 1]","[30, 10]","[1, 1]",2,5,1,50,1,1,1,1840
15,62,"[4, 3]","[40, 10]","[2, 2]",2,1,4,40,4,2,3,2614
15,63,"[2, 1]","[50, 30]","[1, 2]",2,5,2,250,5,2,1,2491
15,64,"[3, 4]","[30, 60]","[2, 1]",2,1,3,30,3,1,4,3850
15,65,"[3, 4]","[80, 80]","[2, 2]",2,5,4,400,8,2,3,3015
15,66,"[1, 2]","[80, 70]","[1, 1]",2,1,1,80,8,1,1,4109
15,67,"[3, 4]","[70, 80]","[2, 1]",2,5,3,350,7,1,4,2307
15,68,"[2, 1]","[80, 70]","[1, 2]",2,1,2,80,8,2,1,4701
15,69,"[3, 4]","[50, 90]","[2, 2]",2,5,4,450,9,2,4,2320
15,70,"[1, 2]","[50, 80]","[1, 2]",2,5,2,400,8,2,2,5169
15,71,"[4, 3]","[70, 30]","[2, 1]",2,1,3,30,3,1,3,3383
15,72,"[2, 1]","[60, 0]","[1, 2]",2,1,2,60,6,2,1,2957
15,73,"[4, 3]","[50, 20]","[2, 1]",2,1,3,20,2,1,3,4043
15,74,"[4, 3]","[70, 20]","[2, 2]",2,5,4,350,7,2,3,2473
15,75,"[4, 3]","[80, 0]","[2, 2]",2,1,4,80,8,2,3,2214
15,76,"[4, 3]","[80, 20]","[2, 2]",2,5,4,400,8,2,3,2948
15,77,"[4, 3]","[90, 10]","[2, 2]",2,5,4,450,9,2,3,1880
15,78,"[1, 2]","[10, 60]","[1, 2]",2,5,2,300,6,2,2,4041
15,79,"[1, 2]","[30, 50]","[1, 2]",2,5,2,250,5,2,2,2247
15,80,"[1, 2]","[40, 60]","[1, 2]",2,5,2,300,6,2,2,1812
16,1,"[2, 1]","[10, 90]","[1, 2]",1,1,2,10,1,2,2,4133
16,2,"[3, 4]","[70, 30]","[2, 1]",1,1,3,70,7,1,3,1991
16,3,"[1, 2]","[80, 40]","[1, 2]",1,1,2,40,4,2,1,2524
16,4,"[2, 1]","[50, 70]","[1, 2]",1,5,2,250,5,2,2,1909
16,5,"[4, 3]","[30, 60]","[2, 1]",1,1,3,60,6,1,4,2291
16,6,"[4, 3]","[20, 50]","[2, 1]",1,5,3,250,5,1,4,3541
16,7,"[3, 4]","[60, 40]","[2, 1]",1,1,3,60,6,1,3,2458
16,8,"[4, 3]","[30, 20]","[2, 1]",1,5,3,100,2,1,3,2326
16,9,"[3, 4]","[10, 50]","[2, 1]",1,1,3,10,1,1,4,1874
16,10,"[4, 3]","[40, 40]","[2, 1]",1,5,3,200,4,1,4,2460
16,11,"[2, 1]","[50, 60]","[1, 2]",1,5,2,250,5,2,2,2543
16,12,"[2, 1]","[70, 70]","[1, 2]",1,1,2,70,7,2,2,2091
16,13,"[3, 4]","[80, 70]","[2, 1]",1,5,3,400,8,1,3,1891
16,14,"[1, 2]","[60, 80]","[1, 2]",1,1,2,80,8,2,2,2157
16,15,"[2, 1]","[80, 40]","[1, 2]",1,1,2,80,8,2,1,3725
16,16,"[1, 2]","[30, 80]","[1, 2]",1,5,2,400,8,2,2,2726
16,17,"[4, 3]","[70, 50]","[2, 1]",1,5,3,250,5,1,3,2093
16,18,"[2, 1]","[40, 80]","[1, 2]",1,1,2,40,4,2,2,1793
16,19,"[1, 2]","[90, 40]","[1, 2]",1,5,2,200,4,2,1,2891
16,20,"[2, 1]","[40, 80]","[1, 2]",1,1,2,40,4,2,2,1759
16,21,"[1, 2]","[70, 20]","[1, 2]",1,1,2,20,2,2,1,1841
16,22,"[2, 1]","[0, 50]","[1, 1]",1,5,1,250,5,1,2,2892
16,23,"[4, 3]","[0, 30]","[2, 1]",1,1,3,30,3,1,4,2093
16,24,"[4, 3]","[20, 30]","[2, 1]",1,1,3,30,3,1,4,2158
16,25,"[2, 1]","[0, 0]","[1, 2]",1,5,2,0,0,2,2,2192
16,26,"[1, 2]","[10, 20]","[1, 2]",1,1,2,20,2,2,2,2225
16,27,"[2, 1]","[30, 20]","[1, 2]",1,5,2,150,3,2,1,2160
16,28,"[1, 2]","[10, 10]","[1, 2]",1,1,2,10,1,2,1,3775
16,29,"[2, 1]","[20, 20]","[1, 2]",1,1,2,20,2,2,2,1825
16,30,"[1, 2]","[10, 10]","[1, 2]",1,1,2,10,1,2,1,2289
16,31,"[1, 2]","[40, 10]","[1, 2]",1,5,2,50,1,2,1,2259
16,32,"[4, 3]","[30, 10]","[2, 2]",1,1,4,30,3,2,3,2359
16,33,"[3, 4]","[10, 30]","[2, 2]",1,1,4,30,3,2,4,1874
16,34,"[2, 1]","[70, 0]","[1, 2]",1,5,2,350,7,2,1,2160
16,35,"[4, 3]","[50, 0]","[2, 2]",1,1,4,50,5,2,3,2176
16,36,"[3, 4]","[10, 60]","[2, 2]",1,5,4,300,6,2,4,2041
16,37,"[2, 1]","[60, 10]","[1, 2]",1,5,2,300,6,2,1,2026
16,38,"[1, 2]","[10, 50]","[1, 2]",1,1,2,50,5,2,2,1891
16,39,"[4, 3]","[90, 0]","[2, 2]",1,5,4,450,9,2,3,1859
16,40,"[4, 3]","[70, 10]","[2, 2]",1,5,4,350,7,2,3,1859
16,41,"[3, 4]","[20, 60]","[2, 1]",2,5,3,100,2,1,4,71604
16,42,"[4, 3]","[80, 30]","[2, 2]",2,1,4,80,8,2,3,1860
16,43,"[2, 1]","[80, 20]","[1, 1]",2,5,1,100,2,1,1,2524
16,44,"[4, 3]","[80, 10]","[2, 1]",2,5,3,50,1,1,3,1557
16,45,"[2, 1]","[80, 20]","[1, 2]",2,5,2,400,8,2,1,1725
16,46,"[4, 3]","[40, 30]","[2, 2]",2,1,4,40,4,2,3,1824
16,47,"[3, 4]","[50, 40]","[2, 2]",2,1,4,40,4,2,3,2025
16,48,"[1, 2]","[40, 30]","[1, 2]",2,5,2,150,3,2,1,2406
16,49,"[1, 2]","[60, 70]","[1, 2]",2,5,2,350,7,2,2,2593
16,50,"[4, 3]","[70, 80]","[2, 2]",2,1,4,70,7,2,4,3008
16,51,"[2, 1]","[40, 70]","[1, 2]",2,5,2,200,4,2,2,1826
16,52,"[3, 4]","[60, 20]","[2, 2]",2,5,4,100,2,2,3,2242
16,53,"[3, 4]","[40, 10]","[2, 2]",2,1,4,10,1,2,3,1875
16,54,"[4, 3]","[10, 10]","[2, 2]",2,1,4,10,1,2,4,1927
16,55,"[2, 1]","[10, 10]","[1, 2]",2,5,2,50,1,2,2,1675
16,56,"[2, 1]","[0, 10]","[1, 2]",2,5,2,0,0,2,2,1891
16,57,"[3, 4]","[10, 10]","[2, 2]",2,5,4,50,1,2,3,1726
16,58,"[3, 4]","[20, 10]","[2, 1]",2,5,3,100,2,1,3,1293
16,59,"[2, 1]","[40, 30]","[1, 2]",2,1,2,40,4,2,1,1842
16,60,"[3, 4]","[60, 30]","[2, 2]",2,5,4,150,3,2,3,1710
16,61,"[3, 4]","[70, 10]","[2, 2]",2,5,4,50,1,2,3,1976
16,62,"[1, 2]","[80, 20]","[1, 2]",2,1,2,20,2,2,1,1791
16,63,"[3, 4]","[50, 0]","[2, 1]",2,5,3,250,5,1,3,1491
16,64,"[1, 2]","[10, 10]","[1, 2]",2,5,2,50,1,2,1,2192
16,65,"[2, 1]","[30, 10]","[1, 2]",2,5,2,150,3,2,1,1609
16,66,"[2, 1]","[40, 20]","[1, 1]",2,1,1,20,2,1,1,1659
16,67,"[1, 2]","[0, 60]","[1, 1]",2,1,1,0,0,1,2,1858
16,68,"[1, 2]","[0, 50]","[1, 2]",2,5,2,250,5,2,2,2410
16,69,"[4, 3]","[60, 20]","[2, 2]",2,1,4,60,6,2,3,1658
16,70,"[4, 3]","[70, 20]","[2, 2]",2,5,4,350,7,2,3,1491
16,71,"[3, 4]","[10, 50]","[2, 2]",2,1,4,50,5,2,4,1725
16,72,"[1, 2]","[10, 40]","[1, 1]",2,1,1,10,1,1,2,1777
16,73,"[1, 2]","[0, 50]","[1, 2]",2,5,2,250,5,2,2,1375
16,74,"[4, 3]","[40, 10]","[2, 2]",2,1,4,40,4,2,3,1726
16,75,"[2, 1]","[10, 40]","[1, 1]",2,5,1,200,4,1,2,1741
16,76,"[2, 1]","[20, 20]","[1, 2]",2,1,2,20,2,2,2,1741
16,77,"[4, 3]","[10, 60]","[2, 2]",2,1,4,10,1,2,4,2660
16,78,"[4, 3]","[10, 90]","[2, 1]",2,1,3,90,9,1,4,1744
16,79,"[4, 3]","[10, 90]","[2, 2]",2,5,4,50,1,2,4,1941
16,80,"[3, 4]","[70, 10]","[2, 2]",2,1,4,10,1,2,3,1891
17,1,"[4, 3]","[20, 80]","[2, 2]",1,5,4,100,2,2,4,4755
17,2,"[4, 3]","[40, 70]","[2, 1]",1,1,3,70,7,1,4,2250
17,3,"[1, 2]","[80, 30]","[1, 2]",1,1,2,30,3,2,1,2752
17,4,"[2, 1]","[60, 70]","[1, 2]",1,5,2,300,6,2,2,3081
17,5,"[4, 3]","[40, 50]","[2, 1]",1,5,3,250,5,1,4,3244
17,6,"[4, 3]","[10, 50]","[2, 2]",1,5,4,50,1,2,4,2941
17,7,"[1, 2]","[70, 0]","[1, 1]",1,1,1,70,7,1,1,2859
17,8,"[3, 4]","[40, 10]","[2, 1]",1,5,3,200,4,1,3,5981
17,9,"[2, 1]","[30, 40]","[1, 2]",1,5,2,150,3,2,2,5865
17,10,"[4, 3]","[40, 40]","[2, 1]",1,1,3,40,4,1,4,3206
17,11,"[1, 2]","[20, 40]","[1, 1]",1,5,1,100,2,1,2,3442
17,12,"[3, 4]","[20, 50]","[2, 2]",1,1,4,50,5,2,4,4788
17,13,"[1, 2]","[50, 60]","[1, 1]",1,5,1,250,5,1,2,3603
17,14,"[1, 2]","[50, 40]","[1, 2]",1,1,2,40,4,2,1,3278
17,15,"[4, 3]","[50, 40]","[2, 2]",1,1,4,50,5,2,3,4667
17,16,"[2, 1]","[70, 50]","[1, 2]",1,1,2,70,7,2,1,8876
17,17,"[4, 3]","[70, 40]","[2, 2]",1,5,4,350,7,2,3,2522
17,18,"[3, 4]","[60, 90]","[2, 2]",1,5,4,450,9,2,4,6009
17,19,"[2, 1]","[70, 80]","[1, 2]",1,1,2,70,7,2,2,3714
17,20,"[4, 3]","[80, 70]","[2, 1]",1,5,3,350,7,1,3,7945
17,21,"[3, 4]","[70, 60]","[2, 1]",1,1,3,70,7,1,3,2532
17,22,"[2, 1]","[80, 60]","[1, 1]",1,1,1,60,6,1,1,5053
17,23,"[4, 3]","[70, 30]","[2, 2]",1,1,4,70,7,2,3,4148
17,24,"[4, 3]","[50, 30]","[2, 2]",1,1,4,50,5,2,3,1793
17,25,"[1, 2]","[20, 50]","[1, 1]",1,5,1,100,2,1,2,2638
17,26,"[1, 2]","[10, 70]","[1, 2]",1,5,2,350,7,2,2,3395
17,27,"[1, 2]","[20, 40]","[1, 2]",1,1,2,40,4,2,2,2232
17,28,"[3, 4]","[40, 70]","[2, 1]",1,5,3,200,4,1,4,2601
17,29,"[2, 1]","[80, 60]","[1, 1]",1,1,1,60,6,1,1,2521
17,30,"[3, 4]","[50, 70]","[2, 1]",1,5,3,250,5,1,4,2733
17,31,"[1, 2]","[60, 80]","[1, 2]",1,5,2,400,8,2,2,2096
17,32,"[3, 4]","[80, 80]","[2, 2]",1,5,4,400,8,2,3,2222
17,33,"[1, 2]","[90, 70]","[1, 1]",1,5,1,450,9,1,1,3814
17,34,"[3, 4]","[80, 60]","[2, 1]",1,1,3,80,8,1,3,3926
17,35,"[3, 4]","[80, 30]","[2, 1]",1,1,3,80,8,1,3,2947
17,36,"[3, 4]","[70, 20]","[2, 2]",1,5,4,100,2,2,3,2777
17,37,"[1, 2]","[60, 20]","[1, 1]",1,1,1,60,6,1,1,2113
17,38,"[1, 2]","[60, 20]","[1, 2]",1,5,2,100,2,2,1,2078
17,39,"[3, 4]","[90, 30]","[2, 2]",1,5,4,150,3,2,3,2702
17,40,"[4, 3]","[20, 70]","[2, 1]",1,5,3,350,7,1,4,2619
17,41,"[4, 3]","[20, 80]","[2, 1]",2,5,3,400,8,1,4,3411
17,42,"[4, 3]","[30, 80]","[2, 2]",2,1,4,30,3,2,4,2103
17,43,"[4, 3]","[20, 90]","[2, 1]",2,5,3,450,9,1,4,1897
17,44,"[3, 4]","[50, 10]","[2, 1]",2,5,3,250,5,1,3,3383
17,45,"[2, 1]","[50, 70]","[1, 2]",2,1,2,50,5,2,2,2953
17,46,"[2, 1]","[60, 50]","[1, 2]",2,1,2,60,6,2,1,2223
17,47,"[3, 4]","[90, 10]","[2, 2]",2,1,4,10,1,2,3,5995
17,48,"[3, 4]","[80, 10]","[2, 1]",2,5,3,400,8,1,3,2279
17,49,"[3, 4]","[50, 30]","[2, 1]",2,5,3,250,5,1,3,1894
17,50,"[2, 1]","[30, 60]","[1, 2]",2,1,2,30,3,2,2,1821
17,51,"[1, 2]","[50, 10]","[1, 2]",2,5,2,50,1,2,1,2013
17,52,"[3, 4]","[40, 30]","[2, 1]",2,1,3,40,4,1,3,2649
17,53,"[2, 1]","[20, 40]","[1, 1]",2,1,1,40,4,1,2,2603
17,54,"[1, 2]","[30, 30]","[1, 2]",2,5,2,150,3,2,1,3163
17,55,"[1, 2]","[60, 20]","[1, 2]",2,5,2,100,2,2,1,1939
17,56,"[1, 2]","[40, 20]","[1, 1]",2,5,1,200,4,1,1,2063
17,57,"[2, 1]","[10, 40]","[1, 1]",2,1,1,40,4,1,2,2334
17,58,"[3, 4]","[10, 10]","[2, 2]",2,5,4,50,1,2,3,2151
17,59,"[4, 3]","[20, 10]","[2, 1]",2,5,3,50,1,1,3,3527
17,60,"[1, 2]","[10, 50]","[1, 2]",2,5,2,250,5,2,2,2347
17,61,"[1, 2]","[20, 60]","[1, 2]",2,1,2,60,6,2,2,2114
17,62,"[4, 3]","[80, 40]","[2, 2]",2,5,4,400,8,2,3,2925
17,63,"[4, 3]","[60, 60]","[2, 2]",2,5,4,300,6,2,4,1967
17,64,"[4, 3]","[80, 80]","[2, 2]",2,1,4,80,8,2,4,5954
17,65,"[4, 3]","[70, 80]","[2, 2]",2,1,4,70,7,2,4,1733
17,66,"[1, 2]","[80, 50]","[1, 2]",2,1,2,50,5,2,1,2254
17,67,"[1, 2]","[70, 10]","[1, 2]",2,5,2,50,1,2,1,3925
17,68,"[4, 3]","[10, 80]","[2, 1]",2,1,3,80,8,1,4,2182
17,69,"[2, 1]","[10, 90]","[1, 1]",2,5,1,450,9,1,2,2079
17,70,"[3, 4]","[80, 20]","[2, 1]",2,1,3,80,8,1,3,4088
17,71,"[2, 1]","[50, 70]","[1, 1]",2,1,1,70,7,1,2,2268
17,72,"[2, 1]","[40, 90]","[1, 1]",2,1,1,90,9,1,2,1915
17,73,"[4, 3]","[50, 90]","[2, 1]",2,1,3,90,9,1,4,2622
17,74,"[3, 4]","[70, 70]","[2, 1]",2,1,3,70,7,1,3,1974
17,75,"[4, 3]","[30, 60]","[2, 1]",2,1,3,60,6,1,4,1739
17,76,"[1, 2]","[90, 30]","[1, 1]",2,1,1,90,9,1,1,2242
17,77,"[2, 1]","[50, 70]","[1, 1]",2,5,1,350,7,1,2,2261
17,78,"[1, 2]","[80, 40]","[1, 1]",2,1,1,80,8,1,1,2219
17,79,"[4, 3]","[50, 70]","[2, 1]",2,1,3,70,7,1,4,1869
17,80,"[3, 4]","[80, 30]","[2, 1]",2,5,3,400,8,1,3,1905
18,1,"[4, 3]","[20, 60]","[2, 2]",1,1,4,20,2,2,4,3654
18,2,"[1, 2]","[80, 30]","[1, 2]",1,1,2,30,3,2,1,1690
18,3,"[4, 3]","[20, 70]","[2, 1]",1,1,3,70,7,1,4,1705
18,4,"[2, 1]","[20, 50]","[1, 2]",1,1,2,20,2,2,2,1782
18,5,"[2, 1]","[50, 80]","[1, 1]",1,5,1,400,8,1,2,1715
18,6,"[2, 1]","[70, 80]","[1, 1]",1,5,1,400,8,1,2,1723
18,7,"[1, 2]","[80, 50]","[1, 2]",1,1,2,50,5,2,1,1770
18,8,"[4, 3]","[30, 60]","[2, 2]",1,1,4,30,3,2,4,1715
18,9,"[3, 4]","[80, 20]","[2, 1]",1,5,3,400,8,1,3,3650
18,10,"[1, 2]","[90, 60]","[1, 1]",1,1,1,90,9,1,1,1782
18,11,"[2, 1]","[50, 70]","[1, 1]",1,5,1,350,7,1,2,2123
18,12,"[3, 4]","[40, 70]","[2, 1]",1,5,3,200,4,1,4,2224
18,13,"[2, 1]","[70, 50]","[1, 1]",1,5,1,250,5,1,1,2225
18,14,"[4, 3]","[80, 70]","[2, 1]",1,5,3,350,7,1,3,2107
18,15,"[4, 3]","[80, 90]","[2, 1]",1,1,3,90,9,1,4,1982
18,16,"[1, 2]","[70, 60]","[1, 1]",1,1,1,70,7,1,1,2148
18,17,"[3, 4]","[40, 90]","[2, 2]",1,1,4,90,9,2,4,2340
18,18,"[1, 2]","[40, 80]","[1, 2]",1,5,2,400,8,2,2,2050
18,19,"[4, 3]","[80, 30]","[2, 2]",1,5,4,400,8,2,3,2024
18,20,"[2, 1]","[90, 40]","[1, 2]",1,1,2,90,9,2,1,2340
18,21,"[1, 2]","[50, 80]","[1, 2]",1,1,2,80,8,2,2,1999
18,22,"[2, 1]","[80, 80]","[1, 2]",1,1,2,80,8,2,2,2007
18,23,"[4, 3]","[90, 70]","[2, 2]",1,5,4,450,9,2,3,2342
18,24,"[1, 2]","[70, 70]","[1, 2]",1,5,2,350,7,2,1,2474
18,25,"[1, 2]","[60, 60]","[1, 2]",1,1,2,60,6,2,1,1881
18,26,"[2, 1]","[50, 90]","[1, 1]",1,5,1,450,9,1,2,1906
18,27,"[1, 2]","[80, 70]","[1, 1]",1,5,1,400,8,1,1,1766
18,28,"[2, 1]","[60, 60]","[1, 1]",1,5,1,300,6,1,2,1781
18,29,"[3, 4]","[90, 60]","[2, 1]",1,5,3,450,9,1,3,2531
18,30,"[1, 2]","[90, 50]","[1, 1]",1,1,1,90,9,1,1,1965
18,31,"[1, 2]","[80, 30]","[1, 1]",1,1,1,80,8,1,1,1855
18,32,"[4, 3]","[80, 70]","[2, 2]",1,5,4,400,8,2,3,2297
18,33,"[3, 4]","[80, 80]","[2, 2]",1,5,4,400,8,2,3,1990
18,34,"[2, 1]","[70, 70]","[1, 2]",1,1,2,70,7,2,2,2116
18,35,"[4, 3]","[70, 70]","[2, 2]",1,5,4,350,7,2,4,2040
18,36,"[4, 3]","[60, 60]","[2, 2]",1,1,4,60,6,2,4,1948
18,37,"[1, 2]","[40, 60]","[1, 1]",1,1,1,40,4,1,2,2139
18,38,"[3, 4]","[70, 50]","[2, 2]",1,1,4,50,5,2,3,2164
18,39,"[4, 3]","[30, 70]","[2, 2]",1,1,4,30,3,2,4,1774
18,40,"[3, 4]","[80, 30]","[2, 1]",1,5,3,400,8,1,3,2157
18,41,"[2, 1]","[0, 80]","[1, 2]",2,5,2,0,0,2,2,3745
18,42,"[1, 2]","[80, 10]","[1, 2]",2,1,2,10,1,2,1,2407
18,43,"[2, 1]","[0, 80]","[1, 1]",2,1,1,80,8,1,2,2641
18,44,"[3, 4]","[80, 0]","[2, 1]",2,5,3,400,8,1,3,1981
18,45,"[3, 4]","[90, 10]","[2, 1]",2,5,3,450,9,1,3,1815
18,46,"[3, 4]","[70, 20]","[2, 1]",2,1,3,70,7,1,3,1848
18,47,"[4, 3]","[0, 80]","[2, 1]",2,1,3,80,8,1,4,1924
18,48,"[4, 3]","[0, 70]","[2, 1]",2,5,3,350,7,1,4,1838
18,49,"[3, 4]","[70, 40]","[2, 1]",2,1,3,70,7,1,3,1815
18,50,"[2, 1]","[40, 70]","[1, 1]",2,1,1,70,7,1,2,2223
18,51,"[2, 1]","[30, 50]","[1, 1]",2,5,1,250,5,1,2,1856
18,52,"[2, 1]","[30, 80]","[1, 2]",2,1,2,30,3,2,2,1924
18,53,"[2, 1]","[40, 90]","[1, 1]",2,5,1,450,9,1,2,1756
18,54,"[3, 4]","[80, 80]","[2, 1]",2,1,3,80,8,1,3,1889
18,55,"[1, 2]","[80, 90]","[1, 1]",2,1,1,80,8,1,2,1931
18,56,"[4, 3]","[80, 90]","[2, 1]",2,5,3,450,9,1,4,2115
18,57,"[4, 3]","[80, 80]","[2, 1]",2,1,3,80,8,1,4,1923
18,58,"[3, 4]","[90, 60]","[2, 1]",2,1,3,90,9,1,3,2021
18,59,"[2, 1]","[80, 50]","[1, 1]",2,1,1,50,5,1,1,2248
18,60,"[4, 3]","[50, 50]","[2, 2]",2,5,4,250,5,2,4,1980
18,61,"[1, 2]","[60, 60]","[1, 2]",2,1,2,60,6,2,1,2831
18,62,"[4, 3]","[30, 70]","[2, 2]",2,1,4,30,3,2,4,2081
18,63,"[1, 2]","[60, 40]","[1, 1]",2,5,1,300,6,1,1,1822
18,64,"[2, 1]","[70, 70]","[1, 1]",2,1,1,70,7,1,2,1813
18,65,"[1, 2]","[70, 60]","[1, 1]",2,5,1,350,7,1,1,1955
18,66,"[3, 4]","[70, 30]","[2, 1]",2,5,3,350,7,1,3,2098
18,67,"[3, 4]","[80, 20]","[2, 1]",2,5,3,400,8,1,3,2458
18,68,"[1, 2]","[90, 0]","[1, 1]",2,5,1,450,9,1,1,2090
18,69,"[2, 1]","[10, 80]","[1, 1]",2,1,1,80,8,1,2,1814
18,70,"[4, 3]","[10, 90]","[2, 1]",2,5,3,450,9,1,4,2007
18,71,"[2, 1]","[10, 80]","[1, 1]",2,5,1,400,8,1,2,1865
18,72,"[2, 1]","[0, 60]","[1, 1]",2,5,1,300,6,1,2,1880
18,73,"[2, 1]","[10, 60]","[1, 1]",2,5,1,300,6,1,2,1865
18,74,"[4, 3]","[30, 30]","[2, 1]",2,5,3,150,3,1,4,1981
18,75,"[1, 2]","[0, 10]","[1, 2]",2,5,2,50,1,2,2,2373
18,76,"[1, 2]","[10, 30]","[1, 1]",2,1,1,10,1,1,2,2015
18,77,"[4, 3]","[0, 20]","[2, 1]",2,1,3,20,2,1,4,2106
18,78,"[4, 3]","[10, 0]","[2, 2]",2,5,4,50,1,2,3,2264
18,79,"[1, 2]","[20, 30]","[1, 1]",2,1,1,20,2,1,2,2974
18,80,"[2, 1]","[20, 40]","[1, 1]",2,5,1,200,4,1,2,2031
19,1,"[4, 3]","[20, 80]","[2, 1]",1,5,3,400,8,1,4,4319
19,2,"[4, 3]","[40, 70]","[2, 1]",1,1,3,70,7,1,4,2657
19,3,"[1, 2]","[80, 30]","[1, 2]",1,1,2,30,3,2,1,2159
19,4,"[2, 1]","[60, 70]","[1, 2]",1,5,2,300,6,2,2,2182
19,5,"[4, 3]","[40, 50]","[2, 1]",1,5,3,250,5,1,4,2038
19,6,"[4, 3]","[10, 50]","[2, 1]",1,5,3,250,5,1,4,2409
19,7,"[1, 2]","[70, 0]","[1, 2]",1,1,2,0,0,2,1,2016
19,8,"[3, 4]","[40, 10]","[2, 1]",1,5,3,200,4,1,3,1889
19,9,"[2, 1]","[30, 40]","[1, 2]",1,5,2,150,3,2,2,2173
19,10,"[4, 3]","[40, 40]","[2, 1]",1,1,3,40,4,1,4,1974
19,11,"[1, 2]","[20, 40]","[1, 2]",1,5,2,200,4,2,2,4831
19,12,"[3, 4]","[20, 50]","[2, 1]",1,1,3,20,2,1,4,1822
19,13,"[1, 2]","[50, 60]","[1, 2]",1,5,2,300,6,2,2,2098
19,14,"[1, 2]","[50, 40]","[1, 2]",1,1,2,40,4,2,1,1979
19,15,"[4, 3]","[50, 40]","[2, 1]",1,1,3,40,4,1,3,2032
19,16,"[2, 1]","[70, 50]","[1, 2]",1,1,2,70,7,2,1,1889
19,17,"[4, 3]","[70, 40]","[2, 1]",1,5,3,200,4,1,3,1850
19,18,"[3, 4]","[60, 90]","[2, 1]",1,5,3,300,6,1,4,2123
19,19,"[2, 1]","[70, 80]","[1, 2]",1,1,2,70,7,2,2,2220
19,20,"[4, 3]","[80, 70]","[2, 1]",1,5,3,350,7,1,3,1847
19,21,"[3, 4]","[70, 60]","[2, 1]",1,1,3,70,7,1,3,1873
19,22,"[2, 1]","[80, 60]","[1, 2]",1,1,2,80,8,2,1,2074
19,23,"[4, 3]","[70, 30]","[2, 1]",1,1,3,30,3,1,3,1770
19,24,"[4, 3]","[50, 30]","[2, 1]",1,1,3,30,3,1,3,1838
19,25,"[1, 2]","[20, 50]","[1, 2]",1,5,2,250,5,2,2,1887
19,26,"[1, 2]","[10, 70]","[1, 2]",1,5,2,350,7,2,2,2056
19,27,"[1, 2]","[20, 40]","[1, 2]",1,1,2,40,4,2,2,1959
19,28,"[3, 4]","[40, 70]","[2, 1]",1,5,3,200,4,1,4,2033
19,29,"[2, 1]","[80, 60]","[1, 2]",1,1,2,80,8,2,1,2004
19,30,"[3, 4]","[50, 70]","[2, 1]",1,5,3,250,5,1,4,1836
19,31,"[1, 2]","[60, 80]","[1, 2]",1,5,2,400,8,2,2,1906
19,32,"[3, 4]","[80, 80]","[2, 1]",1,5,3,400,8,1,3,1906
19,33,"[1, 2]","[90, 70]","[1, 2]",1,5,2,350,7,2,1,1906
19,34,"[3, 4]","[80, 60]","[2, 1]",1,1,3,80,8,1,3,1788
19,35,"[3, 4]","[80, 30]","[2, 1]",1,1,3,80,8,1,3,1948
19,36,"[3, 4]","[70, 20]","[2, 1]",1,5,3,350,7,1,3,1898
19,37,"[1, 2]","[60, 20]","[1, 2]",1,1,2,20,2,2,1,1763
19,38,"[1, 2]","[60, 20]","[1, 2]",1,5,2,100,2,2,1,2176
19,39,"[3, 4]","[90, 30]","[2, 1]",1,5,3,450,9,1,3,1798
19,40,"[4, 3]","[20, 70]","[2, 1]",1,5,3,350,7,1,4,1804
19,41,"[4, 3]","[20, 80]","[2, 1]",2,5,3,400,8,1,4,3659
19,42,"[4, 3]","[30, 80]","[2, 2]",2,1,4,30,3,2,4,1880
19,43,"[4, 3]","[20, 90]","[2, 1]",2,5,3,450,9,1,4,1787
19,44,"[3, 4]","[50, 10]","[2, 1]",2,5,3,250,5,1,3,1948
19,45,"[2, 1]","[50, 70]","[1, 1]",2,1,1,70,7,1,2,4209
19,46,"[2, 1]","[60, 50]","[1, 1]",2,1,1,50,5,1,1,2282
19,47,"[3, 4]","[90, 10]","[2, 1]",2,1,3,90,9,1,3,2099
19,48,"[3, 4]","[80, 10]","[2, 2]",2,5,4,50,1,2,3,1730
19,49,"[3, 4]","[50, 30]","[2, 1]",2,5,3,250,5,1,3,1754
19,50,"[2, 1]","[30, 60]","[1, 1]",2,1,1,60,6,1,2,3352
19,51,"[1, 2]","[50, 10]","[1, 1]",2,5,1,250,5,1,1,2355
19,52,"[3, 4]","[40, 30]","[2, 1]",2,1,3,40,4,1,3,1815
19,53,"[2, 1]","[20, 40]","[1, 1]",2,1,1,40,4,1,2,3166
19,54,"[1, 2]","[30, 30]","[1, 1]",2,5,1,150,3,1,1,2271
19,55,"[1, 2]","[60, 20]","[1, 1]",2,5,1,300,6,1,1,2715
19,56,"[1, 2]","[40, 20]","[1, 1]",2,5,1,200,4,1,1,1949
19,57,"[2, 1]","[10, 40]","[1, 1]",2,1,1,40,4,1,2,1966
19,58,"[3, 4]","[10, 10]","[2, 1]",2,5,3,50,1,1,3,1939
19,59,"[4, 3]","[20, 10]","[2, 1]",2,5,3,50,1,1,3,1989
19,60,"[1, 2]","[10, 50]","[1, 2]",2,5,2,250,5,2,2,3834
19,61,"[1, 2]","[20, 60]","[1, 2]",2,1,2,60,6,2,2,2239
19,62,"[4, 3]","[80, 40]","[2, 1]",2,5,3,200,4,1,3,4430
19,63,"[4, 3]","[60, 60]","[2, 1]",2,5,3,300,6,1,4,2476
19,64,"[4, 3]","[80, 80]","[2, 1]",2,1,3,80,8,1,4,1955
19,65,"[4, 3]","[70, 80]","[2, 1]",2,1,3,80,8,1,4,1924
19,66,"[1, 2]","[80, 50]","[1, 1]",2,1,1,80,8,1,1,2407
19,67,"[1, 2]","[70, 10]","[1, 1]",2,5,1,350,7,1,1,2471
19,68,"[4, 3]","[10, 80]","[2, 2]",2,1,4,10,1,2,4,2174
19,69,"[2, 1]","[10, 90]","[1, 2]",2,5,2,50,1,2,2,2557
19,70,"[3, 4]","[80, 20]","[2, 1]",2,1,3,80,8,1,3,2091
19,71,"[2, 1]","[50, 70]","[1, 1]",2,1,1,70,7,1,2,2121
19,72,"[2, 1]","[40, 90]","[1, 1]",2,1,1,90,9,1,2,2257
19,73,"[4, 3]","[50, 90]","[2, 1]",2,1,3,90,9,1,4,2058
19,74,"[3, 4]","[70, 70]","[2, 1]",2,1,3,70,7,1,3,2158
19,75,"[4, 3]","[30, 60]","[2, 1]",2,1,3,60,6,1,4,2225
19,76,"[1, 2]","[90, 30]","[1, 2]",2,1,2,30,3,2,1,2966
19,77,"[2, 1]","[50, 70]","[1, 1]",2,5,1,350,7,1,2,4577
19,78,"[1, 2]","[80, 40]","[1, 1]",2,1,1,80,8,1,1,2290
19,79,"[4, 3]","[50, 70]","[2, 1]",2,1,3,70,7,1,4,2467
19,80,"[3, 4]","[80, 30]","[2, 1]",2,5,3,400,8,1,3,2267
20,1,"[4, 3]","[60, 10]","[2, 2]",1,1,4,60,6,2,3,3420
20,2,"[1, 2]","[20, 50]","[1, 2]",1,1,2,50,5,2,2,1740
20,3,"[3, 4]","[30, 50]","[2, 1]",1,1,3,30,3,1,4,1984
20,4,"[2, 1]","[50, 10]","[1, 2]",1,5,2,250,5,2,1,1726
20,5,"[2, 1]","[30, 20]","[1, 1]",1,1,1,20,2,1,1,1662
20,6,"[1, 2]","[20, 0]","[1, 2]",1,1,2,0,0,2,1,1421
20,7,"[2, 1]","[30, 10]","[1, 1]",1,5,1,50,1,1,1,1846
20,8,"[3, 4]","[20, 30]","[2, 1]",1,1,3,20,2,1,4,3711
20,9,"[2, 1]","[10, 50]","[1, 1]",1,5,1,250,5,1,2,3734
20,10,"[4, 3]","[0, 80]","[2, 1]",1,5,3,400,8,1,4,14160
20,11,"[3, 4]","[70, 10]","[2, 2]",1,5,4,50,1,2,3,1753
20,12,"[2, 1]","[10, 60]","[1, 1]",1,1,1,60,6,1,2,2676
20,13,"[4, 3]","[30, 60]","[2, 2]",1,5,4,150,3,2,4,2629
20,14,"[2, 1]","[20, 50]","[1, 1]",1,5,1,250,5,1,2,2197
20,15,"[4, 3]","[30, 80]","[2, 1]",1,5,3,400,8,1,4,2235
20,16,"[3, 4]","[60, 20]","[2, 1]",1,5,3,300,6,1,3,1964
20,17,"[4, 3]","[40, 70]","[2, 1]",1,5,3,350,7,1,4,1892
20,18,"[4, 3]","[60, 90]","[2, 1]",1,1,3,90,9,1,4,1795
20,19,"[2, 1]","[40, 70]","[1, 1]",1,1,1,70,7,1,2,2356
20,20,"[3, 4]","[70, 60]","[2, 1]",1,1,3,70,7,1,3,2224
20,21,"[2, 1]","[60, 60]","[1, 1]",1,5,1,300,6,1,2,2715
20,22,"[1, 2]","[70, 90]","[1, 1]",1,1,1,70,7,1,2,2819
20,23,"[1, 2]","[80, 80]","[1, 1]",1,5,1,400,8,1,1,2757
20,24,"[2, 1]","[70, 80]","[1, 1]",1,5,1,400,8,1,2,2351
20,25,"[1, 2]","[70, 60]","[1, 1]",1,1,1,70,7,1,1,2140
20,26,"[1, 2]","[60, 40]","[1, 1]",1,5,1,300,6,1,1,1895
20,27,"[1, 2]","[60, 10]","[1, 1]",1,5,1,300,6,1,1,2395
20,28,"[1, 2]","[80, 10]","[1, 2]",1,1,2,10,1,2,1,1870
20,29,"[3, 4]","[70, 50]","[2, 1]",1,5,3,350,7,1,3,2782
20,30,"[4, 3]","[70, 60]","[2, 1]",1,5,3,300,6,1,3,3407
20,31,"[3, 4]","[50, 60]","[2, 1]",1,1,3,50,5,1,4,1984
20,32,"[2, 1]","[90, 30]","[1, 1]",1,5,1,150,3,1,1,2168
20,33,"[4, 3]","[50, 30]","[2, 1]",1,1,3,30,3,1,3,2163
20,34,"[4, 3]","[40, 50]","[2, 2]",1,5,4,200,4,2,4,2450
20,35,"[4, 3]","[60, 90]","[2, 2]",1,1,4,60,6,2,4,2124
20,36,"[1, 2]","[50, 80]","[1, 1]",1,1,1,50,5,1,2,4001
20,37,"[3, 4]","[80, 50]","[2, 2]",1,5,4,250,5,2,3,5242
20,38,"[3, 4]","[70, 50]","[2, 2]",1,1,4,50,5,2,3,2693
20,39,"[1, 2]","[80, 50]","[1, 2]",1,5,2,250,5,2,1,3540
20,40,"[2, 1]","[60, 60]","[1, 2]",1,5,2,300,6,2,2,2424
20,41,"[3, 4]","[70, 50]","[2, 1]",2,1,3,70,7,1,3,3293
20,42,"[3, 4]","[60, 30]","[2, 1]",2,5,3,300,6,1,3,1864
20,43,"[4, 3]","[60, 70]","[2, 1]",2,5,3,350,7,1,4,2043
20,44,"[1, 2]","[50, 70]","[1, 1]",2,1,1,50,5,1,2,2342
20,45,"[1, 2]","[50, 60]","[1, 1]",2,5,1,250,5,1,2,2848
20,46,"[1, 2]","[60, 40]","[1, 1]",2,5,1,300,6,1,1,1981
20,47,"[2, 1]","[30, 40]","[1, 1]",2,5,1,200,4,1,2,2303
20,48,"[3, 4]","[10, 30]","[2, 2]",2,1,4,30,3,2,4,2165
20,49,"[1, 2]","[10, 60]","[1, 1]",2,1,1,10,1,1,2,2372
20,50,"[3, 4]","[50, 80]","[2, 2]",2,5,4,400,8,2,4,2167
20,51,"[2, 1]","[80, 50]","[1, 2]",2,1,2,80,8,2,1,2307
20,52,"[3, 4]","[60, 80]","[2, 2]",2,5,4,400,8,2,4,2011
20,53,"[2, 1]","[70, 70]","[1, 2]",2,5,2,350,7,2,2,2816
20,54,"[2, 1]","[90, 60]","[1, 2]",2,1,2,90,9,2,1,2573
20,55,"[3, 4]","[70, 80]","[2, 2]",2,5,4,400,8,2,4,2619
20,56,"[4, 3]","[90, 80]","[2, 2]",2,5,4,450,9,2,3,2428
20,57,"[1, 2]","[90, 90]","[1, 2]",2,1,2,90,9,2,1,2628
20,58,"[4, 3]","[60, 70]","[2, 2]",2,1,4,60,6,2,4,2409
20,59,"[3, 4]","[90, 60]","[2, 1]",2,1,3,90,9,1,3,2426
20,60,"[1, 2]","[60, 50]","[1, 1]",2,1,1,60,6,1,1,2760
20,61,"[4, 3]","[60, 30]","[2, 1]",2,1,3,30,3,1,3,3044
20,62,"[2, 1]","[50, 60]","[1, 2]",2,5,2,250,5,2,2,4123
20,63,"[3, 4]","[60, 80]","[2, 2]",2,1,4,80,8,2,4,2499
20,64,"[2, 1]","[80, 70]","[1, 2]",2,1,2,80,8,2,1,2488
20,65,"[2, 1]","[90, 70]","[1, 2]",2,5,2,450,9,2,1,2257
